Domain
LB
Code
C100429
xxTESTCD
A1AGLP
xxTEST
Alpha-1 Acid Glycoprotein
CDISC Synonym(s)
Alpha-1 Acid Glycoprotein
CDISC Definition
A measurement of the alpha-1 acid glycoprotein in a biological specimen.
NCI Preferred Term
Alpha-1 Acid Glycoprotein Measurement
xxTEST_J
アルファ1酸性糖タンパク質
CDISC Synonym(s)_J
アルファ1酸性糖タンパク質
CDISC Definition_J
生物標本中のアルファ 1 酸性糖タンパク質の測定。
NCI Preferred Term_J
アルファ1酸性糖タンパク質測定

Domain
LB
Code
C181404
xxTESTCD
A1ANTRPF
xxTEST
Alpha-1 Antitrypsin, Functional
CDISC Synonym(s)
Alpha-1 Antitrypsin, Functional
CDISC Definition
A measurement of the functional alpha-1 antitrypsin in a biological specimen.
NCI Preferred Term
Functional Alpha-1 Antitrypsin Measurement
xxTEST_J
アルファ1アンチトリプシン、機能性
CDISC Synonym(s)_J
アルファ1アンチトリプシン、機能性
CDISC Definition_J
生物学的標本中の機能的アルファ-1 アンチトリプシンの測定。
NCI Preferred Term_J
機能的α-1アンチトリプシン測定

Domain
LB
Code
C80167
xxTESTCD
A1ANTRYP
xxTEST
Alpha-1 Antitrypsin
CDISC Synonym(s)
Alpha-1 Antitrypsin; Serum Trypsin Inhibitor
CDISC Definition
A measurement of the alpha-1 antitrypsin in a biological specimen.
NCI Preferred Term
Alpha-1 Antitrypsin Measurement
xxTEST_J
アルファ1アンチトリプシン
CDISC Synonym(s)_J
α-1アンチトリプシン；血清トリプシンインヒビター
CDISC Definition_J
生物標本中のアルファ 1 アンチトリプシンの測定。
NCI Preferred Term_J
アルファ1アンチトリプシン測定

Domain
LB
Code
C186022
xxTESTCD
A1MCGEXR
xxTEST
Alpha-1 Microglobulin Excretion Rate
CDISC Synonym(s)
Alpha-1 Microglobulin Excretion Rate
CDISC Definition
A measurement of the amount of alpha-1 microglobulin being excreted in a biological specimen over a defined amount of time (e.g. one hour).
NCI Preferred Term
Alpha-1 Microglobulin Excretion Rate Measurement
xxTEST_J
アルファ1ミクログロブリン排泄率
CDISC Synonym(s)_J
アルファ1ミクログロブリン排泄率
CDISC Definition_J
定義された時間（例：1 時間）にわたって生物学的標本中に排出されるアルファ 1 ミクログロブリンの量を測定します。
NCI Preferred Term_J
アルファ1ミクログロブリン排泄率測定

Domain
LB
Code
C100462
xxTESTCD
A1MCREAT
xxTEST
Alpha-1 Microglobulin/Creatinine
CDISC Synonym(s)
Alpha-1 Microglobulin/Creatinine
CDISC Definition
A relative measurement (ratio or percentage) of the alpha-1 microglobulin to creatinine in a biological specimen.
NCI Preferred Term
Alpha-1 Microglobulin to Creatinine Ratio Measurement
xxTEST_J
アルファ1ミクログロブリン/クレアチニン
CDISC Synonym(s)_J
アルファ1ミクログロブリン/クレアチニン
CDISC Definition_J
生物学的標本中のクレアチニンに対するアルファ 1 ミクログロブリンの相対的な測定値 (比率またはパーセンテージ)。
NCI Preferred Term_J
アルファ1ミクログロブリン対クレアチニン比測定

Domain
LB
Code
C100461
xxTESTCD
A1MICG
xxTEST
Alpha-1 Microglobulin
CDISC Synonym(s)
Alpha-1 Microglobulin; Protein HC
CDISC Definition
A measurement of the alpha-1 microglobulin in a biological specimen.
NCI Preferred Term
Alpha-1 Microglobulin Measurement
xxTEST_J
アルファ1ミクログロブリン
CDISC Synonym(s)_J
アルファ1ミクログロブリン; タンパク質HC
CDISC Definition_J
生物標本中のアルファ 1 ミクログロブリンの測定。
NCI Preferred Term_J
アルファ1ミクログロブリン測定

Domain
LB
Code
C80168
xxTESTCD
A2MACG
xxTEST
Alpha-2 Macroglobulin
CDISC Synonym(s)
Alpha-2 Macroglobulin
CDISC Definition
A measurement of the alpha-2 macroglobulin in a biological specimen.
NCI Preferred Term
Alpha-2 Macroglobulin Measurement
xxTEST_J
アルファ2マクログロブリン
CDISC Synonym(s)_J
アルファ2マクログロブリン
CDISC Definition_J
生物標本中のアルファ 2 マクログロブリンの測定。
NCI Preferred Term_J
アルファ2マクログロブリン測定

Domain
LB
Code
C172524
xxTESTCD
A73OXC
xxTEST
7-alpha-Hydroxy-4-cholesten-3-one
CDISC Synonym(s)
7-Alpha hydroxy-4-cholesten-3-one; 7-alpha-Hydroxy-4-cholesten-3-one
CDISC Definition
A measurement of the 7-alpha-hydroxy-4-cholesten-3-one in a biological specimen.
NCI Preferred Term
7-alpha-Hydroxy-4-cholesten-3-one Measurement
xxTEST_J
7-アルファ-ヒドロキシ-4-コレステン-3-オン
CDISC Synonym(s)_J
7-アルファヒドロキシ-4-コレステン-3-オン; 7-アルファ-ヒドロキシ-4-コレステン-3-オン
CDISC Definition_J
生物標本中の 7-アルファ-ヒドロキシ-4-コレステン-3-オンの測定。
NCI Preferred Term_J
7-α-ヒドロキシ-4-コレステン-3-オン測定

Domain
LB
Code
C154761
xxTESTCD
AAMAPAC
xxTEST
Alpha-Aminoadipic Acid
CDISC Synonym(s)
Alpha-Aminoadipate; Alpha-Aminoadipic Acid
CDISC Definition
A measurement of the alpha-aminoadipic acid in a biological specimen.
NCI Preferred Term
Alpha-Aminoadipic Acid Measurement
xxTEST_J
α-アミノアジピン酸
CDISC Synonym(s)_J
α-アミノアジピン酸; α-アミノアジピン酸
CDISC Definition_J
生物標本中のα-アミノアジピン酸の測定。
NCI Preferred Term_J
α-アミノアジピン酸測定

Domain
LB
Code
C154759
xxTESTCD
AAMBTAC
xxTEST
Alpha-Aminobutyric Acid
CDISC Synonym(s)
Alpha-aminobutyrate; Alpha-Aminobutyric Acid; Homoalanine
CDISC Definition
A measurement of the alpha-aminobutyric acid in a biological specimen.
NCI Preferred Term
Alpha-Aminobutyric Acid Measurement
xxTEST_J
α-アミノ酪酸
CDISC Synonym(s)_J
α-アミノ酪酸; α-アミノ酪酸; ホモアラニン
CDISC Definition_J
生物標本中のα-アミノ酪酸の測定。
NCI Preferred Term_J
α-アミノ酪酸測定

Domain
MB
Code
C209632
xxTESTCD
AAN
xxTEST
Acinetobacter anitratus
CDISC Synonym(s)
Acinetobacter anitratus
CDISC Definition
A measurement of Acinetobacter anitratus in a biological specimen.
NCI Preferred Term
Acinetobacter anitratus Measurement
xxTEST_J
アシネトバクター・アニトラトゥス
CDISC Synonym(s)_J
アシネトバクター・アニトラトゥス
CDISC Definition_J
生物標本中の Acinetobacter anitratus の測定。
NCI Preferred Term_J
アシネトバクター・アニトラタス測定

Domain
LB
Code
C100430
xxTESTCD
AAP
xxTEST
Alanine Aminopeptidase
CDISC Synonym(s)
Alanine Aminopeptidase
CDISC Definition
A measurement of the alanine aminopeptidase in a biological specimen.
NCI Preferred Term
Alanine Aminopeptidase Measurement
xxTEST_J
アラニンアミノペプチダーゼ
CDISC Synonym(s)_J
アラニンアミノペプチダーゼ
CDISC Definition_J
生物標本中のアラニンアミノペプチダーゼの測定。
NCI Preferred Term_J
アラニンアミノペプチダーゼ測定

Domain
LB
Code
C221574
xxTESTCD
AARGS
xxTEST
Aggrecan Ala-Arg-Gly-Ser Neoepitope
CDISC Synonym(s)
Aggrecan Ala-Arg-Gly-Ser Neoepitope; Aggrecan Alanine-Arginine-Glycine-Serine Neoepitope; ARGS; ARGS-Aggrecan
CDISC Definition
A measurement of the aggrecan alanine-arginine-glycine-serine neoepitope (ARGS) in a biological specimen.
NCI Preferred Term
Aggrecan Alanine-Arginine-Glycine-Serine Neoepitope Measurement
xxTEST_J
アグリカン Ala-Arg-Gly-Ser ネオエピトープ
CDISC Synonym(s)_J
アグリカン Ala-Arg-Gly-Ser ネオエピトープ; アグリカン アラニン-アルギニン-グリシン-セリン ネオエピトープ; ARGS; ARGS-アグリカン
CDISC Definition_J
生物標本中のアグリカン アラニン-アルギニン-グリシン-セリン ネオエピトープ (ARGS) の測定。
NCI Preferred Term_J
アグリカンアラニン-アルギニン-グリシン-セリンネオエピトープ測定

Domain
LB
Code
C189527
xxTESTCD
AATZPL
xxTEST
Alpha-1 Antitrypsin Z-Polymer
CDISC Synonym(s)
AAT Z-Polymer; Alpha-1 Antitrypsin Z-Polymer
CDISC Definition
A measurement of the polymers of Z-variant alpha-1 antitrypsin in a biological specimen.
NCI Preferred Term
Alpha-1 Antitrypsin Z-Polymer Measurement
xxTEST_J
アルファ-1アンチトリプシンZポリマー
CDISC Synonym(s)_J
AAT Zポリマー; アルファ1アンチトリプシンZポリマー
CDISC Definition_J
生物標本中の Z 変異体アルファ 1 アンチトリプシンのポリマーの測定。
NCI Preferred Term_J
アルファ1アンチトリプシンZポリマー測定

Domain
CV
Code
C122038
xxTESTCD
AAUGIX
xxTEST
Aortic Augmentation Index
CDISC Synonym(s)
Aortic Augmentation Index
CDISC Definition
The augmentation pressure divided by the aortic pulse pressure (aortic systolic minus aortic diastolic pressure) multiplied by 100, expressed as a percentage.
NCI Preferred Term
Aortic Augmentation Index Measurement
xxTEST_J
大動脈増大指数
CDISC Synonym(s)_J
大動脈増大指数
CDISC Definition_J
増大圧力を大動脈脈圧（大動脈収縮期圧から大動脈拡張期圧を引いた値）で割り、100 を掛けてパーセントで表します。
NCI Preferred Term_J
大動脈増大係数測定

Domain
CV
Code
C122083
xxTESTCD
AAUGIX75
xxTEST
Aortic Augmentation Index at 75bpm
CDISC Synonym(s)
Aortic Augmentation Index at 75bpm
CDISC Definition
The aortic augmentation index normalized to a heart rate of 75 beats per minute.
NCI Preferred Term
Aortic Augmentation Index at 75bpm
xxTEST_J
大動脈増大係数（75bpm）
CDISC Synonym(s)_J
大動脈増大係数（75bpm）
CDISC Definition_J
大動脈増大係数は、心拍数 75 回/分に正規化されます。
NCI Preferred Term_J
大動脈増大係数（75bpm）

Domain
CV
Code
C122084
xxTESTCD
AAUGPR
xxTEST
Aortic Augmentation Pressure
CDISC Synonym(s)
Aortic Augmentation Pressure
CDISC Definition
The difference between the second pressure peak in the aortic wave, secondary to the pressure wave reflection from the sites of peripheral arterial impedance mismatch (P2) and the first pressure peak in the aortic wave form, secondary to ventricular eject
NCI Preferred Term
Aortic Augmentation Pressure
xxTEST_J
大動脈増大圧
CDISC Synonym(s)_J
大動脈増大圧
CDISC Definition_J
末梢動脈インピーダンス不整合部位からの圧力波反射による大動脈波の2番目の圧力ピーク（P2）と心室駆出による大動脈波の最初の圧力ピークとの差
NCI Preferred Term_J
大動脈増大圧

Domain
CV
Code
C122085
xxTESTCD
AAUGPRP1
xxTEST
Aortic Augmentation Pressure Peak P1
CDISC Synonym(s)
Aortic Augmentation Pressure Peak P1
CDISC Definition
The first pressure peak in the aortic wave form secondary to ventricular ejection.
NCI Preferred Term
Augmentation Pressure Point P1
xxTEST_J
大動脈増大圧ピークP1
CDISC Synonym(s)_J
大動脈増大圧ピークP1
CDISC Definition_J
大動脈波形の最初の圧力ピークは、心室駆出によって生じます。
NCI Preferred Term_J
増強圧力ポイントP1

Domain
CV
Code
C122086
xxTESTCD
AAUGPRP2
xxTEST
Aortic Augmentation Pressure Peak P2
CDISC Synonym(s)
Aortic Augmentation Pressure Peak P2
CDISC Definition
The second pressure peak in the aortic waveform secondary to pressure wave reflection from the periphery.
NCI Preferred Term
Augmentation Pressure Point P2
xxTEST_J
大動脈増大圧ピークP2
CDISC Synonym(s)_J
大動脈増大圧ピークP2
CDISC Definition_J
末梢からの圧力波反射によって生じる大動脈波形の 2 番目の圧力ピーク。
NCI Preferred Term_J
増強圧力ポイントP2

Domain
LB
Code
C199923
xxTESTCD
AB42AB40
xxTEST
Amyloid Beta 1-42/Amyloid Beta 1-40
CDISC Synonym(s)
Amyloid Beta 1-42/Amyloid Beta 1-40
CDISC Definition
A relative measurement (ratio) of the amyloid beta 1-42 to amyloid beta 1-40 in a biological specimen.
NCI Preferred Term
Amyloid Beta 1-42 to Amyloid Beta 1-40 Ratio Measurement
xxTEST_J
アミロイドβ1-42/アミロイドβ1-40
CDISC Synonym(s)_J
アミロイドβ1-42/アミロイドβ1-40
CDISC Definition_J
生物標本中のアミロイドβ1-42とアミロイドβ1-40の相対測定値（比率）。
NCI Preferred Term_J
アミロイドβ1-42とアミロイドβ1-40の比測定

Domain
MB
Code
C221591
xxTESTCD
ABA
xxTEST
Acinetobacter baumannii
CDISC Synonym(s)
Acinetobacter baumannii
CDISC Definition
A measurement of Acinetobacter baumannii in a biological specimen.
NCI Preferred Term
Acinetobacter baumannii Measurement
xxTEST_J
アシネトバクター・バウマニ
CDISC Synonym(s)_J
アシネトバクター・バウマニ
CDISC Definition_J
生物標本中の Acinetobacter baumannii の測定。
NCI Preferred Term_J
アシネトバクター・バウマニ測定

Domain
LB
Code
C184526
xxTESTCD
ABFBCA
xxTEST
AB-FUBINACA
CDISC Synonym(s)
AB-FUBINACA
CDISC Definition
A measurement of the synthetic cannabinoid AB-FUBINACA in a biological specimen.
NCI Preferred Term
AB-FUBINACA Measurement
xxTEST_J
AB-フビナカ
CDISC Synonym(s)_J
AB-フビナカ
CDISC Definition_J
生物標本中の合成カンナビノイド AB-FUBINACA の測定。
NCI Preferred Term_J
AB-FUBINACA測定

Domain
VS
Code
C87304
xxTESTCD
ABI
xxTEST
Ankle-Brachial Index
CDISC Synonym(s)
Ankle-Brachial Index
CDISC Definition
The ratio of ankle systolic pressure to brachial systolic pressure, used to assess arterial insufficiency in the lower extremities.
NCI Preferred Term
Ankle-Brachial Index
xxTEST_J
足首上腕血圧比
CDISC Synonym(s)_J
足首上腕血圧比
CDISC Definition_J
下肢の動脈不全を評価するために使用される、足首収縮期血圧と上腕収縮期血圧の比率。
NCI Preferred Term_J
足首上腕血圧比

Domain
MI
Code
C111124
xxTESTCD
ABNCE
xxTEST
Abnormal Cells
CDISC Synonym(s)
Abnormal Cells
CDISC Definition
A measurement of the abnormal cells in a biological specimen.
NCI Preferred Term
Abnormal Cell Count
xxTEST_J
異常細胞
CDISC Synonym(s)_J
異常細胞
CDISC Definition_J
生物標本内の異常細胞の測定。
NCI Preferred Term_J
異常細胞数

Domain
LB
Code
C111124
xxTESTCD
ABNCE
xxTEST
Abnormal Cells
CDISC Synonym(s)
Abnormal Cells
CDISC Definition
A measurement of the abnormal cells in a biological specimen.
NCI Preferred Term
Abnormal Cell Count
xxTEST_J
異常細胞
CDISC Synonym(s)_J
異常細胞
CDISC Definition_J
生物標本内の異常細胞の測定。
NCI Preferred Term_J
異常細胞数

Domain
LB
Code
C150835
xxTESTCD
ABNCECE
xxTEST
Abnormal Cells/Total Cells
CDISC Synonym(s)
Abnormal Cells/Total Cells
CDISC Definition
A relative measurement (ratio or percentage) of abnormal cells to total cells in a biological specimen.
NCI Preferred Term
Abnormal Cells to Total Cells Ratio Measurement
xxTEST_J
異常細胞数／総細胞数
CDISC Synonym(s)_J
異常細胞数／総細胞数
CDISC Definition_J
生物標本内の総細胞数に対する異常細胞の相対的な測定値（比率またはパーセンテージ）。
NCI Preferred Term_J
異常細胞と全細胞との比率測定

Domain
LB
Code
C150834
xxTESTCD
ABNCELE
xxTEST
Abnormal Cells/Leukocytes
CDISC Synonym(s)
Abnormal Cells/Leukocytes
CDISC Definition
A relative measurement (ratio or percentage) of abnormal cells to leukocytes in a biological specimen.
NCI Preferred Term
Abnormal Cells to Leukocytes Ratio Measurement
xxTEST_J
異常細胞/白血球
CDISC Synonym(s)_J
異常細胞/白血球
CDISC Definition_J
生物標本中の白血球に対する異常細胞の相対的な測定値（比率またはパーセンテージ）。
NCI Preferred Term_J
異常細胞と白血球の比率測定

Domain
LB
Code
C125939
xxTESTCD
ABO
xxTEST
ABO Blood Group
CDISC Synonym(s)
ABO Blood Group
CDISC Definition
The characterization of the blood type of an individual by testing for the presence of A antigen and B antigen on the surface of red blood cells.
NCI Preferred Term
ABO Blood Group Determination
xxTEST_J
ABO式血液型
CDISC Synonym(s)_J
ABO式血液型
CDISC Definition_J
赤血球の表面にある A 抗原と B 抗原の存在を検査することで個人の血液型を特徴付けます。
NCI Preferred Term_J
ABO式血液型判定

Domain
LB
Code
C135397
xxTESTCD
ABOA1
xxTEST
ABO A1 Subtype
CDISC Synonym(s)
ABO A1 Subtype
CDISC Definition
The characterization of the ABO blood group A1 subtype in an individual. (NCI)
NCI Preferred Term
ABO A1 Subtype Determination
xxTEST_J
ABO A1サブタイプ
CDISC Synonym(s)_J
ABO A1サブタイプ
CDISC Definition_J
個人の ABO 血液型 A1 サブタイプの特徴。(NCI)
NCI Preferred Term_J
ABO A1サブタイプの判定

Domain
RP
Code
C106550
xxTESTCD
ABORTN
xxTEST
Number of Abortions
CDISC Synonym(s)
Number of Abortions
CDISC Definition
A measurement of the total number of instances in which there has been a spontaneous termination of pregnancy (miscarriage) or elective termination of pregnancy.
NCI Preferred Term
Number of Abortions
xxTEST_J
中絶件数
CDISC Synonym(s)_J
中絶件数
CDISC Definition_J
妊娠の自然な中絶（流産）または妊娠の希望的な中絶があった事例の総数を測定した値。
NCI Preferred Term_J
中絶件数

Domain
LB
Code
C204641
xxTESTCD
ABP4
xxTEST
4-Aminobiphenyl
CDISC Synonym(s)
4-ABP; 4-Aminobiphenyl
CDISC Definition
A measurement of the 4-aminobiphenyl in a specimen.
NCI Preferred Term
4-Aminobiphenyl Measurement
xxTEST_J
4-アミノビフェニル
CDISC Synonym(s)_J
4-ABP; 4-アミノビフェニル
CDISC Definition_J
検体中の4-アミノビフェニルの測定。
NCI Preferred Term_J
4-アミノビフェニル測定

Domain
LB
Code
C184527
xxTESTCD
ABPNCA
xxTEST
AB-PINACA
CDISC Synonym(s)
AB-PINACA
CDISC Definition
A measurement of the synthetic cannabinoid AB-PINACA in a biological specimen.
NCI Preferred Term
AB-PINACA Measurement
xxTEST_J
AB-PINACA
CDISC Synonym(s)_J
AB-PINACA
CDISC Definition_J
生物標本中の合成カンナビノイド AB-PINACA の測定。
NCI Preferred Term_J
AB-PINACA測定

Domain
NV
Code
C181572
xxTESTCD
ABRIAL
xxTEST
ABR Wave I, Absolute Latency
CDISC Synonym(s)
ABR Wave I, Absolute Latency; Auditory Brainstem Response Wave I, Absolute Latency
CDISC Definition
A measurement of the absolute latency of the auditory brainstem response wave I of the auditory evoked potential waveform.
NCI Preferred Term
Auditory Brainstem Response Wave I, Absolute Latency
xxTEST_J
ABR第1波、絶対潜時
CDISC Synonym(s)_J
ABR第1波、絶対潜時；聴性脳幹反応第1波、絶対潜時
CDISC Definition_J
聴覚誘発電位波形の聴性脳幹反応波 I の絶対潜時の測定。
NCI Preferred Term_J
聴性脳幹反応第1波、絶対潜時

Domain
NV
Code
C181574
xxTESTCD
ABRVA
xxTEST
ABR Wave V, Amplitude
CDISC Synonym(s)
ABR Wave V, Amplitude; Auditory Brainstem Response Wave V, Amplitude
CDISC Definition
A measurement of the magnitude, or height, of the auditory brainstem response wave V of the auditory evoked potential waveform.
NCI Preferred Term
Auditory Brainstem Response Wave V, Amplitude
xxTEST_J
ABR波V、振幅
CDISC Synonym(s)_J
ABR第V波、振幅；聴性脳幹反応第V波、振幅
CDISC Definition_J
聴覚誘発電位波形の聴性脳幹反応波 V の大きさ、または高さの測定値。
NCI Preferred Term_J
聴性脳幹反応第V波、振幅

Domain
NV
Code
C181573
xxTESTCD
ABRVAL
xxTEST
ABR Wave V, Absolute Latency
CDISC Synonym(s)
ABR Wave V, Absolute Latency; Auditory Brainstem Response Wave V, Absolute Latency
CDISC Definition
A measurement of the absolute latency of the auditory brainstem response wave V of the auditory evoked potential waveform.
NCI Preferred Term
Auditory Brainstem Response Wave V, Absolute Latency
xxTEST_J
ABR Wave V、絶対潜時
CDISC Synonym(s)_J
ABR第V波、絶対潜時；聴性脳幹反応第V波、絶対潜時
CDISC Definition_J
聴覚誘発電位波形の聴性脳幹反応波 V の絶対潜時の測定。
NCI Preferred Term_J
聴性脳幹反応第V波、絶対潜時

Domain
NV
Code
C181575
xxTESTCD
ABRVP
xxTEST
ABR Wave V, Presence
CDISC Synonym(s)
ABR Wave V, Presence; Auditory Brainstem Response Wave V, Presence
CDISC Definition
An assessment of the presence of the auditory brainstem response wave V of the auditory evoked potential waveform.
NCI Preferred Term
Auditory Brainstem Response Wave V, Presence
xxTEST_J
ABR波V、プレゼンス
CDISC Synonym(s)_J
ABR第V波、存在; 聴性脳幹反応第V波、存在
CDISC Definition_J
聴覚誘発電位波形の聴性脳幹反応波 V の存在の評価。
NCI Preferred Term_J
聴性脳幹反応第V波、プレゼンス

Domain
IS
Code
C181399
xxTESTCD
ABSCCL
xxTEST
Antibody-secreting Cells
CDISC Synonym(s)
Antibody-secreting Cells
CDISC Definition
A measurement of the antibody-secreting cells in a biological specimen.
NCI Preferred Term
Antibody-secreting Cells Measurement
xxTEST_J
抗体分泌細胞
CDISC Synonym(s)_J
抗体分泌細胞
CDISC Definition_J
生物標本中の抗体分泌細胞の測定。
NCI Preferred Term_J
抗体分泌細胞の測定

Domain
VS
Code
C103346
xxTESTCD
ABSKNF
xxTEST
Abdominal Skinfold Thickness
CDISC Synonym(s)
Abdominal Skinfold Thickness
CDISC Definition
A measurement for determining the subcutaneous fat layer thickness whereby a pinch of skin approximately five centimeters to the right of the umbilicus is measured using calipers. (NCI)
NCI Preferred Term
Abdominal Skinfold Thickness
xxTEST_J
腹部皮下脂肪の厚さ
CDISC Synonym(s)_J
腹部皮下脂肪の厚さ
CDISC Definition_J
皮下脂肪層の厚さを測定するための測定法。臍の右側約 5 センチメートルの皮膚をつまんで、ノギスを使用して測定します。(NCI)
NCI Preferred Term_J
腹部皮下脂肪の厚さ

Domain
LB
Code
C74699
xxTESTCD
ACANT
xxTEST
Acanthocytes
CDISC Synonym(s)
Acanthocytes
CDISC Definition
A measurement of the acanthocytes in a biological specimen.
NCI Preferred Term
Acanthocyte Count
xxTEST_J
有棘細胞
CDISC Synonym(s)_J
有棘細胞
CDISC Definition_J
生物標本中の有棘細胞数の測定。
NCI Preferred Term_J
有棘赤血球数

Domain
LB
Code
C74633
xxTESTCD
ACANTRBC
xxTEST
Acanthocytes/Erythrocytes
CDISC Synonym(s)
Acanthocytes/Erythrocytes
CDISC Definition
A relative measurement (ratio or percentage) of acanthocytes to all erythrocytes in a biological specimen.
NCI Preferred Term
Acanthocyte to Erythrocyte Ratio Measurement
xxTEST_J
有棘赤血球
CDISC Synonym(s)_J
有棘赤血球
CDISC Definition_J
生物標本中のすべての赤血球に対する有棘赤血球の相対的な測定値（比率またはパーセンテージ）。
NCI Preferred Term_J
有棘赤血球比測定

Domain
MB
Code
C191309
xxTESTCD
ACBCM
xxTEST
A. calcoaceticus-baumannii Complex
CDISC Synonym(s)
A. calcoaceticus-baumannii Complex; Acinetobacter calcoaceticus-baumannii Complex
CDISC Definition
A measurement of the Acinetobacter calcoaceticus-baumannii complex in a biological specimen.
NCI Preferred Term
Acinetobacter calcoaceticus/baumannii Complex Measurement
xxTEST_J
A. calcoaceticus-baumannii複合体
CDISC Synonym(s)_J
A. calcoaceticus-baumannii 複合体; Acinetobacter calcoaceticus-baumannii 複合体
CDISC Definition_J
生物標本中の Acinetobacter calcoaceticus-baumannii 複合体の測定。
NCI Preferred Term_J
アシネトバクター・カルコアセティカス/バウマニ複合体測定

Domain
MB
Code
C191308
xxTESTCD
ACBCMDNA
xxTEST
A. calcoaceticus-baumannii Complex DNA
CDISC Synonym(s)
A. calcoaceticus-baumannii Complex DNA; Acinetobacter calcoaceticus-baumannii Complex DNA
CDISC Definition
A measurement of Acinetobacter Calcoaceticus-Baumannii complex DNA in a biological specimen.
NCI Preferred Term
Acinetobacter calcoaceticus/baumannii Complex DNA Measurement
xxTEST_J
A. calcoaceticus-baumannii複合体DNA
CDISC Synonym(s)_J
A. calcoaceticus-baumannii 複合体 DNA; Acinetobacter calcoaceticus-baumannii 複合体 DNA
CDISC Definition_J
生物標本中の Acinetobacter Calcoaceticus-Baumannii 複合体 DNA の測定。
NCI Preferred Term_J
アシネトバクター・カルコアセティカス/バウマニ複合体DNA測定

Domain
TR
Code
C214746
xxTESTCD
ACBSPPD
xxTEST
Absolute Change Baseline in Sum of PPD
CDISC Synonym(s)
Absolute Change Baseline in Sum of PPD
CDISC Definition
The current sum of products of perpendicular diameters minus the baseline sum of products of perpendicular diameters.
NCI Preferred Term
Absolute Change From Baseline in Sum of Products of Perpendicular Diameter
xxTEST_J
PPDの合計における絶対変化ベースライン
CDISC Synonym(s)_J
PPDの合計における絶対変化ベースライン
CDISC Definition_J
現在の垂直直径の積の合計から、垂直直径の積のベースラインの合計を引いたもの。
NCI Preferred Term_J
垂直直径の積の合計のベースラインからの絶対変化

Domain
LB
Code
C221549
xxTESTCD
ACC
xxTEST
Acetyl-CoA Carboxylase
CDISC Synonym(s)
ACC; Acetyl-CoA Carboxylase
CDISC Definition
A measurement of the total acetyl-CoA carboxylase in a biological specimen.
NCI Preferred Term
Acetyl-CoA Carboxylase Measurement
xxTEST_J
アセチルCoAカルボキシラーゼ
CDISC Synonym(s)_J
ACC; アセチルCoAカルボキシラーゼ
CDISC Definition_J
生物標本中の総アセチルCoAカルボキシラーゼの測定。
NCI Preferred Term_J
アセチルCoAカルボキシラーゼ測定

Domain
LB
Code
C221550
xxTESTCD
ACCP
xxTEST
Phosphorylated Acetyl-CoA Carboxylase
CDISC Synonym(s)
pACC; pAcetyl-CoA Carboxylase; Phosphorylated Acetyl-CoA Carboxylase
CDISC Definition
A measurement of the phosphorylated acetyl-CoA carboxylase in a biological specimen.
NCI Preferred Term
Phosphorylated Acetyl-CoA Carboxylase Measurement
xxTEST_J
リン酸アセチルCoAカルボキシラーゼ
CDISC Synonym(s)_J
pACC; pアセチルCoAカルボキシラーゼ; リン酸化アセチルCoAカルボキシラーゼ
CDISC Definition_J
生物標本中のリン酸化アセチルCoAカルボキシラーゼの測定。
NCI Preferred Term_J
リン酸アセチルCoAカルボキシラーゼ測定

Domain
LB
Code
C221551
xxTESTCD
ACCPACC
xxTEST
pAcetyl-CoA Carboxylase/ACC
CDISC Synonym(s)
pACC/ACC; pAcetyl-CoA Carboxylase/ACC; Phosphorylated Acetyl-CoA Carboxylase/Acetyl-CoA Carboxylase
CDISC Definition
A relative measurement (ratio or percentage) of the phosphorylated acetyl-CoA carboxylase to total acetyl-CoA carboxylase in a biological specimen.
NCI Preferred Term
Phosphorylated Acetyl-CoA Carboxylase to Acetyl-CoA Carboxylase Ratio Measurement
xxTEST_J
pアセチルCoAカルボキシラーゼ/ACC
CDISC Synonym(s)_J
pACC/ACC; pアセチルCoAカルボキシラーゼ/ACC; リン酸化アセチルCoAカルボキシラーゼ/アセチルCoAカルボキシラーゼ
CDISC Definition_J
生物標本中の総アセチルCoAカルボキシラーゼに対するリン酸化アセチルCoAカルボキシラーゼの相対測定値（比率またはパーセンテージ）。
NCI Preferred Term_J
リン酸化されたアセチルCoAカルボキシラーゼとアセチルCoAカルボキシラーゼの比率測定

Domain
MI
Code
C181485
xxTESTCD
ACDOBOD
xxTEST
Acidophil Body
CDISC Synonym(s)
Acidophil Bodies; Acidophil Body
CDISC Definition
An evaluation of acidophil bodies in a biological specimen.
NCI Preferred Term
Acidophil Body Assessment
xxTEST_J
好酸性体
CDISC Synonym(s)_J
好酸性小体; 好酸性小体
CDISC Definition_J
生物標本中の好酸球体の評価。
NCI Preferred Term_J
好酸性体評価

Domain
LB
Code
C80169
xxTESTCD
ACE
xxTEST
Angiotensin Converting Enzyme
CDISC Synonym(s)
Angiotensin Converting Enzyme
CDISC Definition
A measurement of the angiotensin converting enzyme in a biological specimen.
NCI Preferred Term
Angiotensin Converting Enzyme Measurement
xxTEST_J
アンジオテンシン変換酵素
CDISC Synonym(s)_J
アンジオテンシン変換酵素
CDISC Definition_J
生物標本中のアンジオテンシン変換酵素の測定。
NCI Preferred Term_J
アンジオテンシン変換酵素測定

Domain
LB
Code
C135398
xxTESTCD
ACETAMIN
xxTEST
Acetaminophen
CDISC Synonym(s)
Acetaminophen; Paracetamol
CDISC Definition
A measurement of the acetaminophen in a biological specimen.
NCI Preferred Term
Acetaminophen Measurement
xxTEST_J
アセトアミノフェン
CDISC Synonym(s)_J
アセトアミノフェン、パラセタモール
CDISC Definition_J
生物標本中のアセトアミノフェンの測定。
NCI Preferred Term_J
アセトアミノフェン測定

Domain
LB
Code
C92247
xxTESTCD
ACETOAC
xxTEST
Acetoacetic Acid
CDISC Synonym(s)
Acetoacetate; Acetoacetic Acid
CDISC Definition
A measurement of the acetoacetic acid in a biological specimen.
NCI Preferred Term
Acetoacetic Acid Measurement
xxTEST_J
アセト酢酸
CDISC Synonym(s)_J
アセト酢酸
CDISC Definition_J
生物標本中のアセト酢酸の測定。
NCI Preferred Term_J
アセト酢酸測定

Domain
LB
Code
C147288
xxTESTCD
ACETONE
xxTEST
Acetone
CDISC Synonym(s)
Acetone
CDISC Definition
A measurement of the acetone in a specimen.
NCI Preferred Term
Acetone Measurement
xxTEST_J
アセトン
CDISC Synonym(s)_J
アセトン
CDISC Definition_J
標本中のアセトンの測定。
NCI Preferred Term_J
アセトン測定

Domain
LB
Code
C74838
xxTESTCD
ACH
xxTEST
Acetylcholine
CDISC Synonym(s)
Acetylcholine
CDISC Definition
A measurement of the acetylcholine hormone in a biological specimen.
NCI Preferred Term
Acetylcholine Measurement
xxTEST_J
アセチルコリン
CDISC Synonym(s)_J
アセチルコリン
CDISC Definition_J
生物標本中のアセチルコリンホルモンの測定。
NCI Preferred Term_J
アセチルコリン測定

Domain
LB
Code
C96560
xxTESTCD
ACHE
xxTEST
Acetylcholinesterase
CDISC Synonym(s)
Acetylcholinesterase
CDISC Definition
A measurement of the acetylcholinesterase in a biological specimen.
NCI Preferred Term
Acetylcholinesterase Measurement
xxTEST_J
アセチルコリンエステラーゼ
CDISC Synonym(s)_J
アセチルコリンエステラーゼ
CDISC Definition_J
生物標本中のアセチルコリンエステラーゼの測定。
NCI Preferred Term_J
アセチルコリンエステラーゼ測定

Domain
TR
Code
C103347
xxTESTCD
ACHNAD
xxTEST
Absolute Change From Nadir
CDISC Synonym(s)
Absolute Change From Nadir
CDISC Definition
The current value minus the lowest value previously recorded.
NCI Preferred Term
Absolute Change From Nadir
xxTEST_J
最低点からの絶対的な変化
CDISC Synonym(s)_J
最低点からの絶対的な変化
CDISC Definition_J
現在の値から、以前に記録された最低値を引いた値。
NCI Preferred Term_J
最低点からの絶対的な変化

Domain
MB
Code
C179755
xxTESTCD
ACINETOB
xxTEST
Acinetobacter
CDISC Synonym(s)
Acinetobacter
CDISC Definition
A measurement of the organisms that are not assigned to the species level but are assigned to the Acinetobacter genus level in a biological specimen.
NCI Preferred Term
Acinetobacter Measurement
xxTEST_J
アシネトバクター
CDISC Synonym(s)_J
アシネトバクター
CDISC Definition_J
生物標本において、種レベルには割り当てられていないが、アシネトバクター属レベルに割り当てられている生物の測定値。
NCI Preferred Term_J
アシネトバクター測定

Domain
TR
Code
C135506
xxTESTCD
ACNDOREN
xxTEST
Absolute Change Nadir in Organ Enlarge
CDISC Synonym(s)
Absolute Change Nadir in Organ Enlarge; Absolute Change Nadir in Organ Enlargement
CDISC Definition
The current organ enlargement minus the lowest organ enlargement previously recorded. (NCI)
NCI Preferred Term
Absolute Change from Nadir in Organ Enlargement
xxTEST_J
臓器拡大における絶対変化最低点
CDISC Synonym(s)_J
臓器肥大の絶対変化最低点; 臓器肥大の絶対変化最低点
CDISC Definition_J
現在の臓器肥大から、これまでに記録された臓器肥大の最小値を差し引いた値。(NCI)
NCI Preferred Term_J
臓器肥大の最低値からの絶対変化

Domain
TR
Code
C112218
xxTESTCD
ACNSD
xxTEST
Absolute Change Nadir in Sum of Diam
CDISC Synonym(s)
Absolute Change Nadir in Sum of Diam
CDISC Definition
The current sum of diameters minus the lowest sum of diameters previously recorded.
NCI Preferred Term
Absolute Change from Nadir in Sum of Diameter
xxTEST_J
直径の合計における絶対変化の最低値
CDISC Synonym(s)_J
直径の合計における絶対変化の最低値
CDISC Definition_J
現在の直径の合計から、以前に記録された最小の直径の合計を引いたもの。
NCI Preferred Term_J
直径の合計における底からの絶対変化

Domain
TR
Code
C214747
xxTESTCD
ACNSPPD
xxTEST
Absolute Change Nadir in Sum of PPD
CDISC Synonym(s)
Absolute Change Nadir in Sum of PPD
CDISC Definition
The current sum of products of perpendicular diameters minus the lowest sum of products of perpendicular diameters previously recorded.
NCI Preferred Term
Absolute Change From Nadir in Sum of Products of Perpendicular Diameter
xxTEST_J
PPDの合計における絶対変化の最低値
CDISC Synonym(s)_J
PPDの合計における絶対変化の最低値
CDISC Definition_J
現在の垂直直径の積の合計から、以前に記録された垂直直径の積の最小の合計を引いたもの。
NCI Preferred Term_J
垂直直径の積の和における底点からの絶対変化

Domain
LB
Code
C80163
xxTESTCD
ACPHOS
xxTEST
Acid Phosphatase
CDISC Synonym(s)
Acid Phosphatase
CDISC Definition
A measurement of the acid phosphatase in a biological specimen.
NCI Preferred Term
Acid Phosphatase Measurement
xxTEST_J
酸性ホスファターゼ
CDISC Synonym(s)_J
酸性ホスファターゼ
CDISC Definition_J
生物標本中の酸性ホスファターゼの測定。
NCI Preferred Term_J
酸性ホスファターゼ測定

Domain
TR
Code
C147488
xxTESTCD
ACPPDNLD
xxTEST
Absolute Change From PPD Nadir in LDIAM
CDISC Synonym(s)
Absolute Change From PPD Nadir in LDIAM
CDISC Definition
The absolute change (positive or negative) in the longest diameter of the lesion from the timepoint at which the product of perpendicular diameters of the lesion is the smallest.
NCI Preferred Term
Absolute Change in Longest Diameter From Nadir Product of Perpendicular Diameters Timepoint
xxTEST_J
LDIAMにおけるPPD最低値からの絶対変化
CDISC Synonym(s)_J
LDIAMにおけるPPD最低値からの絶対変化
CDISC Definition_J
病変の垂直直径の積が最小となる時点からの病変の最長直径の絶対変化（正または負）。
NCI Preferred Term_J
最長径の絶対変化（垂直直径の底積時点から）

Domain
TR
Code
C147489
xxTESTCD
ACPPDNLP
xxTEST
Absolute Change From PPD Nadir in LPERP
CDISC Synonym(s)
Absolute Change From PPD Nadir in LPERP
CDISC Definition
The absolute change (positive or negative) in the longest perpendicular of the lesion from the timepoint at which the product of perpendicular diameters of the lesion is the smallest.
NCI Preferred Term
Absolute Change in Longest Perpendicular from Nadir Product of Perpendicular Diameters Timepoint
xxTEST_J
LPERPにおけるPPD最低値からの絶対変化
CDISC Synonym(s)_J
LPERPにおけるPPD最低値からの絶対変化
CDISC Definition_J
病変の垂線直径の積が最小となる時点からの、病変の最長垂線における絶対変化（正または負）。
NCI Preferred Term_J
最長垂線の絶対変化（垂線直径の天底積から時点）

Domain
CV
Code
C139033
xxTESTCD
ACRCTIND
xxTEST
Aortic Coarctation Indicator
CDISC Synonym(s)
Aortic Coarctation Indicator
CDISC Definition
An indication as to whether there is coarctation of the aorta.
NCI Preferred Term
Aortic Coarctation Indicator
xxTEST_J
大動脈縮窄症指標
CDISC Synonym(s)_J
大動脈縮窄症指標
CDISC Definition_J
大動脈縮窄があるかどうかを示します。
NCI Preferred Term_J
大動脈縮窄症指標

Domain
CV
Code
C139037
xxTESTCD
ACRCTSEV
xxTEST
Aortic Coarctation Severity
CDISC Synonym(s)
Aortic Coarctation Severity
CDISC Definition
The assessment of the severity of aortic coarctation.
NCI Preferred Term
Aortic Coarctation Severity
xxTEST_J
大動脈狭窄症の重症度
CDISC Synonym(s)_J
大動脈狭窄症の重症度
CDISC Definition_J
大動脈縮窄症の重症度の評価。
NCI Preferred Term_J
大動脈狭窄症の重症度

Domain
LB
Code
C147289
xxTESTCD
ACRNCRNF
xxTEST
Acylcarnitine/Carnitine, Free
CDISC Synonym(s)
Acylcarnitine/Carnitine, Free
CDISC Definition
A relative measurement (ratio or percentage) of the acylcarnitine to free carnitine in a biological specimen.
NCI Preferred Term
Acylcarnitine to Free Carnitine Ratio Measurement
xxTEST_J
アシルカルニチン/カルニチン、遊離
CDISC Synonym(s)_J
アシルカルニチン/カルニチン、遊離
CDISC Definition_J
生物標本中のアシルカルニチンと遊離カルニチンの相対的な測定値（比率またはパーセンテージ）。
NCI Preferred Term_J
アシルカルニチンと遊離カルニチンの比率測定

Domain
LB
Code
C204643
xxTESTCD
ACROLEIN
xxTEST
Acrolein
CDISC Synonym(s)
Acrolein
CDISC Definition
A measurement of the acrolein in a specimen.
NCI Preferred Term
Acrolein Measurement
xxTEST_J
アクロレイン
CDISC Synonym(s)_J
アクロレイン
CDISC Definition_J
標本中のアクロレインの測定。
NCI Preferred Term_J
アクロレイン測定

Domain
LB
Code
C204644
xxTESTCD
ACRYNTRL
xxTEST
Acrylonitrile
CDISC Synonym(s)
Acrylonitrile
CDISC Definition
A measurement of the acrylonitrile in a specimen.
NCI Preferred Term
Acrylonitrile Measurement
xxTEST_J
アクリロニトリル
CDISC Synonym(s)_J
アクリロニトリル
CDISC Definition_J
試料中のアクリロニトリルの測定。
NCI Preferred Term_J
アクリロニトリル測定

Domain
LB
Code
C189522
xxTESTCD
ACSPGM
xxTEST
Acid Sphingomyelinase
CDISC Synonym(s)
Acid Sphingomyelinase
CDISC Definition
A measurement of the acid sphingomyelinase in a biological specimen.
NCI Preferred Term
Sphingomyelin Phosphodiesterase Measurement
xxTEST_J
酸性スフィンゴミエリナーゼ
CDISC Synonym(s)_J
酸性スフィンゴミエリナーゼ
CDISC Definition_J
生物標本中の酸性スフィンゴミエリナーゼの測定。
NCI Preferred Term_J
スフィンゴミエリンホスホジエステラーゼ測定

Domain
CV
Code
C221517
xxTESTCD
ACSPRCAT
xxTEST
Acute Coronary Syndrome Presentation Cat
CDISC Synonym(s)
Acute Coronary Syndrome Presentation Cat; Acute Coronary Syndrome Presentation Category
CDISC Definition
A classification of the compilation of symptoms and/or clinical manifestation of acute coronary syndrome.
NCI Preferred Term
Acute Coronary Syndrome Presentation Category
xxTEST_J
急性冠症候群の症状を示す猫
CDISC Synonym(s)_J
急性冠症候群の症状カテゴリー; 急性冠症候群の症状カテゴリー
CDISC Definition_J
急性冠症候群の症状および/または臨床症状をまとめた分類。
NCI Preferred Term_J
急性冠症候群のプレゼンテーションカテゴリー

Domain
LB
Code
C103348
xxTESTCD
ACT
xxTEST
Activated Coagulation Time
CDISC Synonym(s)
Activated Clotting Time; Activated Coagulation Time
CDISC Definition
A measurement of the inhibition of blood coagulation in response to anticoagulant therapies.
NCI Preferred Term
Activated Coagulation Time
xxTEST_J
活性化凝固時間
CDISC Synonym(s)_J
活性化凝固時間; 活性化凝固時間
CDISC Definition_J
抗凝固療法に対する血液凝固の阻害の測定。
NCI Preferred Term_J
活性化凝固時間

Domain
LB
Code
C189521
xxTESTCD
ACTACEXR
xxTEST
Acetoacetic Acid Excretion Rate
CDISC Synonym(s)
Acetoacetate Excretion Rate; Acetoacetic Acid Excretion Rate
CDISC Definition
A measurement of the amount of acetoacetic acid being excreted in a biological specimen over a defined period of time (e.g. one hour).
NCI Preferred Term
Acetoacetic Acid Excretion Rate Measurement
xxTEST_J
アセト酢酸排泄率
CDISC Synonym(s)_J
アセト酢酸排泄率; アセト酢酸排泄率
CDISC Definition_J
定義された期間（例：1 時間）にわたって生物学的標本中に排出されるアセト酢酸の量を測定します。
NCI Preferred Term_J
アセト酢酸排泄率測定

Domain
LB
Code
C204642
xxTESTCD
ACTALD
xxTEST
Acetaldehyde
CDISC Synonym(s)
Acetaldehyde
CDISC Definition
A measurement of the acetaldehyde in a specimen.
NCI Preferred Term
Acetaldehyde Measurement
xxTEST_J
アセトアルデヒド
CDISC Synonym(s)_J
アセトアルデヒド
CDISC Definition_J
検体中のアセトアルデヒドの測定。
NCI Preferred Term_J
アセトアルデヒド測定

Domain
LB
Code
C184510
xxTESTCD
ACTB
xxTEST
Beta-Actin
CDISC Synonym(s)
Actin Beta; B-Actin; Beta-Actin
CDISC Definition
A measurement of the beta-actin in a biological specimen.
NCI Preferred Term
Beta-Actin Measurement
xxTEST_J
ベータアクチン
CDISC Synonym(s)_J
アクチンベータ; B-アクチン; ベータアクチン
CDISC Definition_J
生物標本中のベータアクチンの測定。
NCI Preferred Term_J
ベータアクチン測定

Domain
LB
Code
C74780
xxTESTCD
ACTH
xxTEST
Adrenocorticotropic Hormone
CDISC Synonym(s)
Adrenocorticotropic Hormone; Corticotropin
CDISC Definition
A measurement of the adrenocorticotropic hormone in a biological specimen.
NCI Preferred Term
Adrenocorticotropic Hormone Measurement
xxTEST_J
副腎皮質刺激ホルモン
CDISC Synonym(s)_J
副腎皮質刺激ホルモン; コルチコトロピン
CDISC Definition_J
生物学的標本中の副腎皮質刺激ホルモンの測定。
NCI Preferred Term_J
副腎皮質刺激ホルモン測定

Domain
TS
Code
C98703
xxTESTCD
ACTSUB
xxTEST
Actual Number of Subjects
CDISC Synonym(s)
Actual Number of Subjects
CDISC Definition
Actual number of subjects enrolled; may include subjects who were not randomized.
NCI Preferred Term
Actual Subject Number
xxTEST_J
実際の被験者数
CDISC Synonym(s)_J
実際の被験者数
CDISC Definition_J
登録された被験者の実際の数。ランダム化されなかった被験者が含まれる場合があります。
NCI Preferred Term_J
実際の被験者数

Domain
LB
Code
C202385
xxTESTCD
ACTVNA
xxTEST
Activin A
CDISC Synonym(s)
Activin A
CDISC Definition
A measurement of the activin A (a homodimer consisting of Inhibin Subunit Beta A) in a biological specimen.
NCI Preferred Term
Activin A Measurement
xxTEST_J
アクチビンA
CDISC Synonym(s)_J
アクチビンA
CDISC Definition_J
生物標本中のアクチビン A (インヒビンサブユニットベータ A からなるホモ二量体) の測定。
NCI Preferred Term_J
アクチビンA測定

Domain
LB
Code
C202386
xxTESTCD
ACTVNAB
xxTEST
Activin AB
CDISC Synonym(s)
Activin AB
CDISC Definition
A measurement of the activin AB (a heterodimer consisting of Inhibin Subunit Beta A and Inhibin Subunit Beta B) in a biological specimen.
NCI Preferred Term
Activin AB Measurement
xxTEST_J
アクチビンAB
CDISC Synonym(s)_J
アクチビンAB
CDISC Definition_J
生物標本中のアクチビン AB (インヒビン サブユニット ベータ A とインヒビン サブユニット ベータ B からなるヘテロダイマー) の測定。
NCI Preferred Term_J
アクチビンAB測定

Domain
LB
Code
C202387
xxTESTCD
ACTVNB
xxTEST
Activin B
CDISC Synonym(s)
Activin B
CDISC Definition
A measurement of the activin B (a homodimer consisting of Inhibin Subunit Beta B) in a biological specimen.
NCI Preferred Term
Activin B Measurement
xxTEST_J
アクチビンB
CDISC Synonym(s)_J
アクチビンB
CDISC Definition_J
生物標本中のアクチビン B (インヒビンサブユニットベータ B からなるホモ二量体) の測定。
NCI Preferred Term_J
アクチビンB測定

Domain
LB
Code
C156535
xxTESTCD
ACYCRNTN
xxTEST
Acylcarnitine
CDISC Synonym(s)
Acylcarnitine
CDISC Definition
A measurement of the acylcarnitine in a biological specimen.
NCI Preferred Term
Acylcarnitine Measurement
xxTEST_J
アシルカルニチン
CDISC Synonym(s)_J
アシルカルニチン
CDISC Definition_J
生物標本中のアシルカルニチンの測定。
NCI Preferred Term_J
アシルカルニチン測定

Domain
LB
Code
C156534
xxTESTCD
ACYGLYCN
xxTEST
Acylglycine
CDISC Synonym(s)
Acylglycine
CDISC Definition
A measurement of the acylglycine in a biological specimen.
NCI Preferred Term
Acylglycine Measurement
xxTEST_J
アシルグリシン
CDISC Synonym(s)_J
アシルグリシン
CDISC Definition_J
生物標本中のアシルグリシンの測定。
NCI Preferred Term_J
アシルグリシン測定

Domain
LB
Code
C92286
xxTESTCD
ACYLCAOX
xxTEST
Acyl Coenzyme A Oxidase
CDISC Synonym(s)
Acyl CoA Oxidase; Acyl Coenzyme A Oxidase; Fatty Acyl Coenzyme A Oxidase
CDISC Definition
A measurement of the acyl coenzyme A oxidase in a biological specimen.
NCI Preferred Term
Acyl Coenzyme A Oxidase Measurement
xxTEST_J
アシルコエンザイムAオキシダーゼ
CDISC Synonym(s)_J
アシルCoAオキシダーゼ; アシルコエンザイムAオキシダーゼ; 脂肪酸アシルコエンザイムAオキシダーゼ
CDISC Definition_J
生物標本中のアシルコエンザイムAオキシダーゼの測定。
NCI Preferred Term_J
アシルコエンザイムAオキシダーゼ測定

Domain
IS
Code
C147272
xxTESTCD
ADA_BAB
xxTEST
Binding Antidrug Antibody
CDISC Synonym(s)
Binding Antidrug Antibody
CDISC Definition
A measurement of the binding antidrug antibody in a biological specimen. A binding antidrug antibody is an antibody that binds to a test article, and/or portion(s) of the test article.
NCI Preferred Term
Binding Antidrug Antibody Measurement
xxTEST_J
結合抗薬物抗体
CDISC Synonym(s)_J
結合抗薬物抗体
CDISC Definition_J
生物学的検体中の結合抗薬物抗体の測定。結合抗薬物抗体とは、試験物質、および／または試験物質の一部に結合する抗体のことです。
NCI Preferred Term_J
結合抗薬物抗体測定

Domain
IS
Code
C147273
xxTESTCD
ADA_NAB
xxTEST
Neutralizing Binding Antidrug Antibody
CDISC Synonym(s)
Neutralizing Binding Antidrug Antibody
CDISC Definition
A measurement of the neutralizing binding antidrug antibody in a biological specimen. A neutralizing binding antidrug antibody is a type of ADA that binds to the functional portion of a test article leading to diminished or negated pharmacological activit
NCI Preferred Term
Neutralizing Binding Antidrug Antibody Measurement
xxTEST_J
中和結合抗薬物抗体
CDISC Synonym(s)_J
中和結合抗薬物抗体
CDISC Definition_J
生物学的標本中の中和結合抗薬物抗体の測定。中和結合抗薬物抗体はADAの一種で、試験物質の機能部位に結合し、薬理活性を減弱または無効化する。
NCI Preferred Term_J
中和結合抗薬物抗体測定

Domain
IS
Code
C147274
xxTESTCD
ADA_NX
xxTEST
Neutraliz Cross-React Bind Antidrug AB
CDISC Synonym(s)
Neutraliz Cross-React Bind Antidrug AB; Neutralizing Cross-Reactive Binding Antidrug Antibody
CDISC Definition
A measurement of the neutralizing cross-reactive binding antidrug antibody in a biological specimen. A neutralizing cross-reactive binding antidrug antibody is a type of ADA that binds to an endogenous molecule that is structurally similar to an analogue
NCI Preferred Term
Neutralizing Cross-Reacting Binding Antidrug Antibody Measurement
xxTEST_J
中和交差反応結合抗薬物AB
CDISC Synonym(s)_J
中和交差反応結合抗薬物AB; 中和交差反応結合抗薬物抗体
CDISC Definition_J
生物学的検体中の中和交差反応性結合抗薬物抗体の測定。中和交差反応性結合抗薬物抗体は、類似体と構造的に類似した内因性分子に結合するADAの一種である。
NCI Preferred Term_J
中和交差反応結合抗薬物抗体測定

Domain
IS
Code
C147275
xxTESTCD
ADA_X
xxTEST
Cross-Reactive Binding Antidrug Antibody
CDISC Synonym(s)
Cross-Reactive Binding Antidrug Antibody
CDISC Definition
A measurement of the cross-reactive binding antidrug antibody in a biological specimen. A cross-reactive binding antidrug antibody is a type of ADA that binds to the endogenous molecule that is structurally similar to an analogue test article.
NCI Preferred Term
Cross-Reactive Binding Antidrug Antibody Measurement
xxTEST_J
交差反応性結合抗薬物抗体
CDISC Synonym(s)_J
交差反応性結合抗薬物抗体
CDISC Definition_J
生物学的検体中の交差反応性結合抗薬物抗体の測定。交差反応性結合抗薬物抗体は、類似試験物質と構造的に類似した内因性分子に結合するADAの一種です。
NCI Preferred Term_J
交差反応性結合抗薬物抗体測定

Domain
LB
Code
C147290
xxTESTCD
ADAM8
xxTEST
ADAM Metallopeptidase Domain 8
CDISC Synonym(s)
A Disintegrin And Metalloproteinase Domain 8; ADAM Metallopeptidase Domain 8; Soluble CD156a
CDISC Definition
A measurement of the ADAM metallopeptidase domain 8 protein in a biological specimen.
NCI Preferred Term
ADAM Metallopeptidase Domain 8 Measurement
xxTEST_J
ADAMメタロペプチダーゼドメイン8
CDISC Synonym(s)_J
ディスインテグリンおよびメタロプロテアーゼドメイン8; ADAMメタロペプチダーゼドメイン8; 可溶性CD156a
CDISC Definition_J
生物標本中の ADAM メタロペプチダーゼ ドメイン 8 タンパク質の測定。
NCI Preferred Term_J
ADAMメタロペプチダーゼドメイン8の測定

Domain
LB
Code
C187684
xxTESTCD
ADAMTS13
xxTEST
ADAMTS13
CDISC Synonym(s)
A Disintegrin-Like And Metalloprotease (Reprolysin Type) With Thrombospondin Type 1 Motif, 13; ADAM Metallopeptidase With Thrombospondin Type 1 Motif 13; von Willebrand Coagulation Factor Cleaving Protease ADAMTS13
CDISC Definition
A measurement of the von Willebrand coagulation factor cleaving protease, ADAMTS13, in a biological specimen.
NCI Preferred Term
von Willebrand Coagulation Factor Cleaving Protease Measurement
xxTEST_J
ADAMTS13
CDISC Synonym(s)_J
トロンボスポンジン1型モチーフ13を有するディスインテグリン様メタロプロテアーゼ（リプロリジン型）；トロンボスポンジン1型モチーフ13を有するADAMメタロペプチダーゼ；フォン・ヴィレブランド凝固因子切断プロテアーゼADAMTS13
CDISC Definition_J
生物標本中のフォン・ヴィレブランド凝固因子切断プロテアーゼ ADAMTS13 の測定。
NCI Preferred Term_J
フォン・ヴィレブランド凝固因子切断プロテアーゼ測定

Domain
TS
Code
C146995
xxTESTCD
ADAPT
xxTEST
Adaptive Design
CDISC Synonym(s)
Adaptive Design
CDISC Definition
Indicate if the study includes a prospectively planned opportunity for modification of one or more specified aspects of the study design and hypotheses based on analysis of data (usually interim data) from subjects in the study.
NCI Preferred Term
Adaptive Study Design Indicator
xxTEST_J
適応型デザイン
CDISC Synonym(s)_J
適応型デザイン
CDISC Definition_J
研究に、研究対象者からのデータ（通常は中間データ）の分析に基づいて、研究設計および仮説の 1 つ以上の特定の側面を修正するための前向きに計画された機会が含まれているかどうかを示してください。
NCI Preferred Term_J
適応型研究デザイン指標

Domain
IS
Code
C181362
xxTESTCD
ADBIGA
xxTEST
Binding Antidrug IgA Antibody
CDISC Synonym(s)
Binding Antidrug IgA Antibody
CDISC Definition
A measurement of the binding antidrug IgA antibody in a biological specimen.
NCI Preferred Term
Binding Antidrug IgA Antibody Measurement
xxTEST_J
結合抗薬物IgA抗体
CDISC Synonym(s)_J
結合抗薬物IgA抗体
CDISC Definition_J
生物学的標本中の結合抗薬物 IgA 抗体の測定。
NCI Preferred Term_J
結合抗薬物IgA抗体測定

Domain
IS
Code
C181363
xxTESTCD
ADBIGE
xxTEST
Binding Antidrug IgE Antibody
CDISC Synonym(s)
Binding Antidrug IgE Antibody
CDISC Definition
A measurement of the binding antidrug IgE antibody in a biological specimen.
NCI Preferred Term
Binding Antidrug IgE Antibody Measurement
xxTEST_J
結合抗薬物IgE抗体
CDISC Synonym(s)_J
結合抗薬物IgE抗体
CDISC Definition_J
生物学的標本中の結合抗薬物 IgE 抗体の測定。
NCI Preferred Term_J
結合抗薬物IgE抗体測定

Domain
IS
Code
C181188
xxTESTCD
ADBIGG
xxTEST
Binding Antidrug IgG Antibody
CDISC Synonym(s)
Binding Antidrug IgG Antibody
CDISC Definition
A measurement of the binding antidrug IgG antibody in a biological specimen.
NCI Preferred Term
Binding Antidrug IgG Antibody Measurement
xxTEST_J
結合抗薬物IgG抗体
CDISC Synonym(s)_J
結合抗薬物IgG抗体
CDISC Definition_J
生物学的標本中の結合抗薬物 IgG 抗体の測定。
NCI Preferred Term_J
結合抗薬物IgG抗体測定

Domain
IS
Code
C181366
xxTESTCD
ADBIGG1
xxTEST
Binding Antidrug IgG1 Antibody
CDISC Synonym(s)
Binding Antidrug IgG1 Antibody
CDISC Definition
A measurement of the binding antidrug IgG1 antibody in a biological specimen.
NCI Preferred Term
Binding Antidrug IgG1 Antibody Measurement
xxTEST_J
結合抗薬物IgG1抗体
CDISC Synonym(s)_J
結合抗薬物IgG1抗体
CDISC Definition_J
生物学的標本中の結合抗薬物 IgG1 抗体の測定。
NCI Preferred Term_J
結合抗薬物IgG1抗体測定

Domain
IS
Code
C181367
xxTESTCD
ADBIGG2
xxTEST
Binding Antidrug IgG2 Antibody
CDISC Synonym(s)
Binding Antidrug IgG2 Antibody
CDISC Definition
A measurement of the binding antidrug IgG2 antibody in a biological specimen.
NCI Preferred Term
Binding Antidrug IgG2 Antibody Measurement
xxTEST_J
結合抗薬物IgG2抗体
CDISC Synonym(s)_J
結合抗薬物IgG2抗体
CDISC Definition_J
生物学的標本中の結合抗薬物 IgG2 抗体の測定。
NCI Preferred Term_J
結合抗薬物IgG2抗体測定

Domain
IS
Code
C181368
xxTESTCD
ADBIGG3
xxTEST
Binding Antidrug IgG3 Antibody
CDISC Synonym(s)
Binding Antidrug IgG3 Antibody
CDISC Definition
A measurement of the binding antidrug IgG3 antibody in a biological specimen.
NCI Preferred Term
Binding Antidrug IgG3 Antibody Measurement
xxTEST_J
結合抗薬物IgG3抗体
CDISC Synonym(s)_J
結合抗薬物IgG3抗体
CDISC Definition_J
生物学的標本中の結合抗薬物 IgG3 抗体の測定。
NCI Preferred Term_J
結合抗薬物IgG3抗体測定

Domain
IS
Code
C181369
xxTESTCD
ADBIGG4
xxTEST
Binding Antidrug IgG4 Antibody
CDISC Synonym(s)
Binding Antidrug IgG4 Antibody
CDISC Definition
A measurement of the binding antidrug IgG4 antibody in a biological specimen.
NCI Preferred Term
Binding Antidrug IgG4 Antibody Measurement
xxTEST_J
結合抗薬物IgG4抗体
CDISC Synonym(s)_J
結合抗薬物IgG4抗体
CDISC Definition_J
生物学的標本中の結合抗薬物 IgG4 抗体の測定。
NCI Preferred Term_J
結合抗薬物IgG4抗体測定

Domain
IS
Code
C181365
xxTESTCD
ADBIGGM
xxTEST
Binding Antidrug IgG/IgM Antibody
CDISC Synonym(s)
Binding Antidrug IgG/IgM Antibody
CDISC Definition
A measurement of the binding antidrug IgG and/or IgM antibody in a biological specimen.
NCI Preferred Term
Binding Antidrug IgG/IgM Antibody Measurement
xxTEST_J
結合抗薬物IgG/IgM抗体
CDISC Synonym(s)_J
結合抗薬物IgG/IgM抗体
CDISC Definition_J
生物学的標本中の結合抗薬物 IgG および/または IgM 抗体の測定。
NCI Preferred Term_J
結合抗薬物IgG/IgM抗体測定

Domain
IS
Code
C181364
xxTESTCD
ADBIGM
xxTEST
Binding Antidrug IgM Antibody
CDISC Synonym(s)
Binding Antidrug IgM Antibody
CDISC Definition
A measurement of the binding antidrug IgM antibody in a biological specimen.
NCI Preferred Term
Binding Antidrug IgM Antibody Measurement
xxTEST_J
結合抗薬物IgM抗体
CDISC Synonym(s)_J
結合抗薬物IgM抗体
CDISC Definition_J
生物学的標本中の結合抗薬物 IgM 抗体の測定。
NCI Preferred Term_J
結合抗薬物IgM抗体測定

Domain
LB
Code
C184529
xxTESTCD
ADBPNCA
xxTEST
ADB-PINACA
CDISC Synonym(s)
ADB-PINACA
CDISC Definition
A measurement of the synthetic cannabinoid ADB-PINACA in a biological specimen.
NCI Preferred Term
ADB-PINACA Measurement
xxTEST_J
ADB-PINACA
CDISC Synonym(s)_J
ADB-PINACA
CDISC Definition_J
生物標本中の合成カンナビノイド ADB-PINACA の測定。
NCI Preferred Term_J
ADB-PINACA測定

Domain
IS
Code
C181378
xxTESTCD
ADBXIGA
xxTEST
Cross-Reactive Binding Antidrug IgA AB
CDISC Synonym(s)
Cross-Reactive Binding Antidrug IgA AB; Cross-Reactive Binding Antidrug IgA Antibody
CDISC Definition
A measurement of the cross-reactive binding antidrug IgA antibody in a biological specimen.
NCI Preferred Term
Cross-Reactive Binding Antidrug IgA Antibody Measurement
xxTEST_J
交差反応性結合抗薬物IgA AB
CDISC Synonym(s)_J
交差反応性結合抗薬物IgA AB; 交差反応性結合抗薬物IgA抗体
CDISC Definition_J
生物学的標本中の交差反応性結合抗薬物 IgA 抗体の測定。
NCI Preferred Term_J
交差反応性結合抗薬物IgA抗体測定

Domain
IS
Code
C181379
xxTESTCD
ADBXIGE
xxTEST
Cross-Reactive Binding Antidrug IgE AB
CDISC Synonym(s)
Cross-Reactive Binding Antidrug IgE AB; Cross-Reactive Binding Antidrug IgE Antibody
CDISC Definition
A measurement of the cross-reactive binding antidrug IgE antibody in a biological specimen.
NCI Preferred Term
Cross-Reactive Binding Antidrug IgE Antibody Measurement
xxTEST_J
交差反応性結合抗薬物IgE AB
CDISC Synonym(s)_J
交差反応性結合抗薬物IgE AB; 交差反応性結合抗薬物IgE抗体
CDISC Definition_J
生物学的標本中の交差反応性結合抗薬物 IgE 抗体の測定。
NCI Preferred Term_J
交差反応性結合抗薬物IgE抗体測定

Domain
IS
Code
C181190
xxTESTCD
ADBXIGG
xxTEST
Cross-Reactive Binding Antidrug IgG AB
CDISC Synonym(s)
Cross-Reactive Binding Antidrug IgG AB; Cross-Reactive Binding Antidrug IgG Antibody
CDISC Definition
A measurement of the cross-reactive binding antidrug IgG antibody in a biological specimen.
NCI Preferred Term
Cross-Reactive Binding Antidrug IgG Antibody Measurement
xxTEST_J
交差反応性結合抗薬物IgG AB
CDISC Synonym(s)_J
交差反応性結合抗薬物IgG AB; 交差反応性結合抗薬物IgG抗体
CDISC Definition_J
生物学的標本中の交差反応性結合抗薬物 IgG 抗体の測定。
NCI Preferred Term_J
交差反応性結合抗薬物IgG抗体測定

Domain
IS
Code
C181382
xxTESTCD
ADBXIGG1
xxTEST
Cross-Reactive Binding Antidrug IgG1 AB
CDISC Synonym(s)
Cross-Reactive Binding Antidrug IgG1 AB; Cross-Reactive Binding Antidrug IgG1 Antibody
CDISC Definition
A measurement of the cross-reactive binding antidrug IgG1 antibody in a biological specimen.
NCI Preferred Term
Cross-Reactive Binding Antidrug IgG1 Antibody Measurement
xxTEST_J
交差反応性結合抗薬物IgG1 AB
CDISC Synonym(s)_J
交差反応性結合抗薬物IgG1 AB; 交差反応性結合抗薬物IgG1抗体
CDISC Definition_J
生物学的標本中の交差反応性結合抗薬物 IgG1 抗体の測定。
NCI Preferred Term_J
交差反応性結合抗薬物IgG1抗体測定

Domain
IS
Code
C181383
xxTESTCD
ADBXIGG2
xxTEST
Cross-Reactive Binding Antidrug IgG2 AB
CDISC Synonym(s)
Cross-Reactive Binding Antidrug IgG2 AB; Cross-Reactive Binding Antidrug IgG2 Antibody
CDISC Definition
A measurement of the cross-reactive binding antidrug IgG2 antibody in a biological specimen.
NCI Preferred Term
Cross-Reactive Binding Antidrug IgG2 Antibody Measurement
xxTEST_J
交差反応性結合抗薬物IgG2 AB
CDISC Synonym(s)_J
交差反応性結合抗薬物IgG2 AB; 交差反応性結合抗薬物IgG2抗体
CDISC Definition_J
生物学的標本中の交差反応性結合抗薬物 IgG2 抗体の測定。
NCI Preferred Term_J
交差反応性結合抗薬物IgG2抗体測定

Domain
IS
Code
C181384
xxTESTCD
ADBXIGG3
xxTEST
Cross-Reactive Binding Antidrug IgG3 AB
CDISC Synonym(s)
Cross-Reactive Binding Antidrug IgG3 AB; Cross-Reactive Binding Antidrug IgG3 Antibody
CDISC Definition
A measurement of the cross-reactive binding antidrug IgG3 antibody in a biological specimen.
NCI Preferred Term
Cross-Reactive Binding Antidrug IgG3 Antibody Measurement
xxTEST_J
交差反応性結合抗薬物IgG3 AB
CDISC Synonym(s)_J
交差反応性結合抗薬物IgG3 AB; 交差反応性結合抗薬物IgG3抗体
CDISC Definition_J
生物学的標本中の交差反応性結合抗薬物 IgG3 抗体の測定。
NCI Preferred Term_J
交差反応性結合抗薬物IgG3抗体測定

Domain
IS
Code
C181385
xxTESTCD
ADBXIGG4
xxTEST
Cross-Reactive Binding Antidrug IgG4 AB
CDISC Synonym(s)
Cross-Reactive Binding Antidrug IgG4 AB; Cross-Reactive Binding Antidrug IgG4 Antibody
CDISC Definition
A measurement of the cross-reactive binding antidrug IgG4 antibody in a biological specimen.
NCI Preferred Term
Cross-Reactive Binding Antidrug IgG4 Antibody Measurement
xxTEST_J
交差反応性結合抗薬物IgG4 AB
CDISC Synonym(s)_J
交差反応性結合抗薬物IgG4 AB; 交差反応性結合抗薬物IgG4抗体
CDISC Definition_J
生物学的標本中の交差反応性結合抗薬物 IgG4 抗体の測定。
NCI Preferred Term_J
交差反応性結合抗薬物IgG4抗体測定

Domain
IS
Code
C181381
xxTESTCD
ADBXIGGM
xxTEST
Cross-Reactive Binding ADA IgG/IgM
CDISC Synonym(s)
Cross-Reactive Binding ADA IgG/IgM; Cross-Reactive Binding Antidrug IgG/IgM Antibody
CDISC Definition
A measurement of the cross-reactive binding antidrug IgG and/or IgM antibody in a biological specimen.
NCI Preferred Term
Cross-Reactive Binding Antidrug Antibody IgG/IgM Measurement
xxTEST_J
交差反応性結合ADA IgG/IgM
CDISC Synonym(s)_J
交差反応性結合 ADA IgG/IgM; 交差反応性結合 抗薬物 IgG/IgM 抗体
CDISC Definition_J
生物学的標本中の交差反応性結合抗薬物 IgG および/または IgM 抗体の測定。
NCI Preferred Term_J
交差反応性結合抗薬物抗体IgG/IgM測定

Domain
IS
Code
C181380
xxTESTCD
ADBXIGM
xxTEST
Cross-Reactive Binding Antidrug IgM AB
CDISC Synonym(s)
Cross-Reactive Binding Antidrug IgM AB; Cross-Reactive Binding Antidrug IgM Antibody
CDISC Definition
A measurement of the cross-reactive binding antidrug IgM antibody in a biological specimen.
NCI Preferred Term
Cross-Reactive Binding Antidrug IgM Antibody Measurement
xxTEST_J
交差反応性結合抗薬物IgM AB
CDISC Synonym(s)_J
交差反応性結合抗薬物IgM AB; 交差反応性結合抗薬物IgM抗体
CDISC Definition_J
生物学的標本中の交差反応性結合抗薬物 IgM 抗体の測定。
NCI Preferred Term_J
交差反応性結合抗薬物IgM抗体測定

Domain
TS
Code
C49703
xxTESTCD
ADDON
xxTEST
Added on to Existing Treatments
CDISC Synonym(s)
Added on to Existing Treatments
CDISC Definition
The addition of a therapeutic or other study product to the existing regimen in a study, where both entities remain as discrete products.
NCI Preferred Term
Test Product Added to Existing Treatment
xxTEST_J
既存の治療法に追加
CDISC Synonym(s)_J
既存の治療法に追加
CDISC Definition_J
研究において、治療薬またはその他の研究製品を既存の治療法に追加するものであり、両者は別々の製品のままである。
NCI Preferred Term_J
既存の治療に試験製品を追加

Domain
RE
Code
C189634
xxTESTCD
ADDRELF
xxTEST
Additional Disease-Related Findings
CDISC Synonym(s)
Additional Disease-Related Findings
CDISC Definition
A determination of additional abnormalities and/or other observations that may be associated with the disease of interest, for which a targeted test has not been identified in the data.
NCI Preferred Term
Additional Disease-Related Findings
xxTEST_J
追加の疾患関連所見
CDISC Synonym(s)_J
追加の疾患関連所見
CDISC Definition_J
データ内で対象検査が特定されていない、対象疾患に関連する可能性がある追加の異常および/またはその他の観察事項の判定。
NCI Preferred Term_J
追加の疾患関連所見

Domain
MB
Code
C221629
xxTESTCD
ADE
xxTEST
Achromobacter denitrificans
CDISC Synonym(s)
Achromobacter denitrificans
CDISC Definition
A measurement of Achromobacter denitrificans in a biological specimen.
NCI Preferred Term
Achromobacter denitrificans Measurement
xxTEST_J
アクロモバクター・デニトリフィカンス
CDISC Synonym(s)_J
アクロモバクター・デニトリフィカンス
CDISC Definition_J
生物標本中の Achromobacter denitrificans の測定。
NCI Preferred Term_J
アクロモバクター・デニトリフィカンス測定

Domain
MB
Code
C154830
xxTESTCD
ADENOVAG
xxTEST
Adenovirus Antigen
CDISC Synonym(s)
Adenovirus Antigen
CDISC Definition
A measurement of the Adenovirus antigen in a biological specimen.
NCI Preferred Term
Adenovirus Antigen Measurement
xxTEST_J
アデノウイルス抗原
CDISC Synonym(s)_J
アデノウイルス抗原
CDISC Definition_J
生物標本中のアデノウイルス抗原の測定。
NCI Preferred Term_J
アデノウイルス抗原測定

Domain
MB
Code
C171498
xxTESTCD
ADENOVIR
xxTEST
Adenoviridae
CDISC Synonym(s)
Adenoviridae; Adenovirus
CDISC Definition
A measurement of the adenoviridae in a biological specimen.
NCI Preferred Term
Adenoviridae Measurement
xxTEST_J
アデノウイルス科
CDISC Synonym(s)_J
アデノウイルス科; アデノウイルス
CDISC Definition_J
生物標本中のアデノウイルスの測定。
NCI Preferred Term_J
アデノウイルス測定

Domain
SC
Code
C171499
xxTESTCD
ADEVAIND
xxTEST
Appropriate Developmental Age Indicator
CDISC Synonym(s)
Appropriate Development For Age Indicator; Appropriate Developmental Age Indicator
CDISC Definition
An indication as to whether the subject's chronological age matches their physical, emotional, social, and cognitive functioning.
NCI Preferred Term
Appropriate Developmental Age Indicator
xxTEST_J
適切な発達年齢指標
CDISC Synonym(s)_J
年齢に応じた適切な発達指標; 適切な発達年齢指標
CDISC Definition_J
被験者の実年齢が身体的、感情的、社会的、認知的機能と一致しているかどうかを示します。
NCI Preferred Term_J
適切な発達年齢指標

Domain
LB
Code
C74847
xxTESTCD
ADH
xxTEST
Antidiuretic Hormone
CDISC Synonym(s)
Antidiuretic Hormone; Vasopressin
CDISC Definition
A measurement of the antidiuretic hormone in a biological specimen.
NCI Preferred Term
Antidiuretic Hormone Measurement
xxTEST_J
抗利尿ホルモン
CDISC Synonym(s)_J
抗利尿ホルモン；バソプレシン
CDISC Definition_J
生物学的標本中の抗利尿ホルモンの測定。
NCI Preferred Term_J
抗利尿ホルモン測定

Domain
RP
Code
C178050
xxTESTCD
ADLVRDTC
xxTEST
Actual Date of Delivery
CDISC Synonym(s)
Actual Date of Delivery
CDISC Definition
The date on which the delivery event occurred.
NCI Preferred Term
Actual Date of Delivery
xxTEST_J
実際の配達日
CDISC Synonym(s)_J
実際の配達日
CDISC Definition_J
配信イベントが発生した日付。
NCI Preferred Term_J
実際の配達日

Domain
LB
Code
C199910
xxTESTCD
ADM
xxTEST
Adrenomedullin
CDISC Synonym(s)
Adrenomedullin
CDISC Definition
A measurement of the adrenomedullin in a biological specimen.
NCI Preferred Term
Adrenomedullin Measurement
xxTEST_J
アドレノメデュリン
CDISC Synonym(s)_J
アドレノメデュリン
CDISC Definition_J
生物標本中の副腎皮質メデュリンの測定。
NCI Preferred Term_J
副腎皮質メデュリン測定

Domain
LB
Code
C158233
xxTESTCD
ADMA
xxTEST
Asymmetric Dimethylarginine
CDISC Synonym(s)
Asymmetric Dimethylarginine; N,N-dimethylarginine
CDISC Definition
A measurement of asymmetric dimethylarginine in a biological specimen.
NCI Preferred Term
Asymmetric Dimethylarginine Measurement
xxTEST_J
非対称ジメチルアルギニン
CDISC Synonym(s)_J
非対称ジメチルアルギニン; N,N-ジメチルアルギニン
CDISC Definition_J
生物標本中の非対称ジメチルアルギニンの測定。
NCI Preferred Term_J
非対称ジメチルアルギニン測定

Domain
LB
Code
C187830
xxTESTCD
ADMTS13A
xxTEST
ADAMTS13 Activity
CDISC Synonym(s)
A Disintegrin-Like And Metalloprotease (Reprolysin Type) With Thrombospondin Type 1 Motif, 13 Activity; ADAM Metallopeptidase With Thrombospondin Type 1 Motif 13 Activity; ADAMTS13 Activity; von Willebrand Coagulation Factor Cleaving Protease ADAMTS13 Act
CDISC Definition
A measurement of the biological activity of von Willebrand coagulation factor cleaving protease, ADAMTS13, in a biological specimen.
NCI Preferred Term
von Willebrand Coagulation Factor Cleaving Protease Activity Measurement
xxTEST_J
ADAMTS13活性
CDISC Synonym(s)_J
トロンボスポンジン1型モチーフ13活性を有するディスインテグリン様メタロプロテアーゼ（リプロリジン型）；トロンボスポンジン1型モチーフ13活性を有するADAMメタロペプチダーゼ；ADAMTS13活性；フォン・ヴィレブランド凝固因子切断プロテアーゼADAMTS13活性
CDISC Definition_J
生物標本中のフォン・ヴィレブランド凝固因子切断プロテアーゼ、ADAMTS13 の生物活性の測定。
NCI Preferred Term_J
フォン・ヴィレブランド凝固因子切断プロテアーゼ活性測定

Domain
IS
Code
C181370
xxTESTCD
ADNIGA
xxTEST
Neutralizing Binding Antidrug IgA AB
CDISC Synonym(s)
Neutralizing Binding Antidrug IgA AB; Neutralizing Binding Antidrug IgA Antibody
CDISC Definition
A measurement of the neutralizing binding antidrug IgA antibody in a biological specimen.
NCI Preferred Term
Neutralizing Binding Antidrug IgA Antibody Measurement
xxTEST_J
結合中和抗薬物 IgA AB
CDISC Synonym(s)_J
中和結合抗薬物IgA AB; 中和結合抗薬物IgA抗体
CDISC Definition_J
生物学的標本中の中和結合抗薬物 IgA 抗体の測定。
NCI Preferred Term_J
中和結合抗薬物IgA抗体測定

Domain
IS
Code
C181371
xxTESTCD
ADNIGE
xxTEST
Neutralizing Binding Antidrug IgE AB
CDISC Synonym(s)
Neutralizing Binding Antidrug IgE AB; Neutralizing Binding Antidrug IgE Antibody
CDISC Definition
A measurement of the neutralizing binding antidrug IgE antibody in a biological specimen.
NCI Preferred Term
Neutralizing Binding Antidrug IgE Antibody Measurement
xxTEST_J
中和結合抗薬物IgE AB
CDISC Synonym(s)_J
中和結合抗薬物IgE AB; 中和結合抗薬物IgE抗体
CDISC Definition_J
生物学的標本中の中和結合抗薬物 IgE 抗体の測定。
NCI Preferred Term_J
中和結合抗薬物IgE抗体測定

Domain
IS
Code
C181189
xxTESTCD
ADNIGG
xxTEST
Neutralizing Binding Antidrug IgG AB
CDISC Synonym(s)
Neutralizing Binding Antidrug IgG AB; Neutralizing Binding Antidrug IgG Antibody
CDISC Definition
A measurement of the neutralizing binding antidrug IgG antibody in a biological specimen.
NCI Preferred Term
Neutralizing Binding Antidrug IgG Antibody Measurement
xxTEST_J
中和結合抗薬物IgG AB
CDISC Synonym(s)_J
中和結合抗薬物IgG AB; 中和結合抗薬物IgG抗体
CDISC Definition_J
生物学的標本中の中和結合抗薬物 IgG 抗体の測定。
NCI Preferred Term_J
中和結合抗薬物IgG抗体測定

Domain
IS
Code
C181374
xxTESTCD
ADNIGG1
xxTEST
Neutralizing Binding Antidrug IgG1 AB
CDISC Synonym(s)
Neutralizing Binding Antidrug IgG1 AB; Neutralizing Binding Antidrug IgG1 Antibody
CDISC Definition
A measurement of the neutralizing binding antidrug IgG1 antibody in a biological specimen.
NCI Preferred Term
Neutralizing Binding Antidrug IgG1 Antibody Measurement
xxTEST_J
中和結合抗薬物IgG1 AB
CDISC Synonym(s)_J
中和結合抗薬物IgG1 AB; 中和結合抗薬物IgG1抗体
CDISC Definition_J
生物学的標本中の中和結合抗薬物 IgG1 抗体の測定。
NCI Preferred Term_J
中和結合抗薬物IgG1抗体測定

Domain
IS
Code
C181375
xxTESTCD
ADNIGG2
xxTEST
Neutralizing Binding Antidrug IgG2 AB
CDISC Synonym(s)
Neutralizing Binding Antidrug IgG2 AB; Neutralizing Binding Antidrug IgG2 Antibody
CDISC Definition
A measurement of the neutralizing binding antidrug IgG2 antibody in a biological specimen.
NCI Preferred Term
Neutralizing Binding Antidrug IgG2 Antibody Measurement
xxTEST_J
中和結合抗薬物IgG2 AB
CDISC Synonym(s)_J
中和結合抗薬物IgG2 AB; 中和結合抗薬物IgG2抗体
CDISC Definition_J
生物学的標本中の中和結合抗薬物 IgG2 抗体の測定。
NCI Preferred Term_J
中和結合抗薬物IgG2抗体測定

Domain
IS
Code
C181376
xxTESTCD
ADNIGG3
xxTEST
Neutralizing Binding Antidrug IgG3 AB
CDISC Synonym(s)
Neutralizing Binding Antidrug IgG3 AB; Neutralizing Binding Antidrug IgG3 Antibody
CDISC Definition
A measurement of the neutralizing binding antidrug IgG3 antibody in a biological specimen.
NCI Preferred Term
Neutralizing Binding Antidrug IgG3 Antibody Measurement
xxTEST_J
中和結合抗薬物IgG3 AB
CDISC Synonym(s)_J
中和結合抗薬物IgG3 AB; 中和結合抗薬物IgG3抗体
CDISC Definition_J
生物学的標本中の中和結合抗薬物 IgG3 抗体の測定。
NCI Preferred Term_J
中和結合抗薬物IgG3抗体測定

Domain
IS
Code
C181377
xxTESTCD
ADNIGG4
xxTEST
Neutralizing Binding Antidrug IgG4 AB
CDISC Synonym(s)
Neutralizing Binding Antidrug IgG4 AB; Neutralizing Binding Antidrug IgG4 Antibody
CDISC Definition
A measurement of the neutralizing binding antidrug IgG4 antibody in a biological specimen.
NCI Preferred Term
Neutralizing Binding Antidrug IgG4 Antibody Measurement
xxTEST_J
中和結合抗薬物IgG4 AB
CDISC Synonym(s)_J
中和結合抗薬物IgG4 AB; 中和結合抗薬物IgG4抗体
CDISC Definition_J
生物学的標本中の中和結合抗薬物 IgG4 抗体の測定。
NCI Preferred Term_J
中和結合抗薬物IgG4抗体測定

Domain
IS
Code
C181373
xxTESTCD
ADNIGGM
xxTEST
Neutralizing Binding Antidrug IgG/IgM AB
CDISC Synonym(s)
Neutralizing Binding Antidrug IgG/IgM AB
CDISC Definition
A measurement of the neutralizing binding antidrug IgG and/or IgM antibody in a biological specimen.
NCI Preferred Term
Neutralizing Binding Antidrug IgG/IgM Antibody Measurement
xxTEST_J
中和結合抗薬物IgG/IgM AB
CDISC Synonym(s)_J
中和結合抗薬物IgG/IgM AB
CDISC Definition_J
生物学的標本中の中和結合抗薬物 IgG および/または IgM 抗体の測定。
NCI Preferred Term_J
中和結合抗薬物IgG/IgM抗体測定

Domain
IS
Code
C181372
xxTESTCD
ADNIGM
xxTEST
Neutralizing Binding Antidrug IgM AB
CDISC Synonym(s)
Neutralizing Binding Antidrug IgM AB; Neutralizing Binding Antidrug IgM Antibody
CDISC Definition
A measurement of the neutralizing binding antidrug IgM antibody in a biological specimen.
NCI Preferred Term
Neutralizing Binding Antidrug IgM Antibody Measurement
xxTEST_J
中和結合抗薬物IgM AB
CDISC Synonym(s)_J
中和結合抗薬物IgM AB; 中和結合抗薬物IgM抗体
CDISC Definition_J
生物学的標本中の中和結合抗薬物 IgM 抗体の測定。
NCI Preferred Term_J
中和結合抗薬物IgM抗体測定

Domain
IS
Code
C181386
xxTESTCD
ADNXIGA
xxTEST
Neut Cross-Reactive Binding ADA IgA
CDISC Synonym(s)
Neut Cross-Reactive Binding ADA IgA; Neutralizing Cross-Reactive Binding Antidrug IgA Antibody
CDISC Definition
A measurement of the neutralizing cross-reactive binding antidrug IgA antibody in a biological specimen.
NCI Preferred Term
Neutralizing Cross-Reactive Binding Antidrug Antibody IgA Measurement
xxTEST_J
Neut交差反応性結合ADA IgA
CDISC Synonym(s)_J
中和交差反応性結合ADA IgA; 中和交差反応性結合抗薬物IgA抗体
CDISC Definition_J
生物学的標本中の中和交差反応性結合抗薬物 IgA 抗体の測定。
NCI Preferred Term_J
中和交差反応性結合抗薬物抗体IgA測定

Domain
IS
Code
C181387
xxTESTCD
ADNXIGE
xxTEST
Neut Cross-Reactive Binding ADA IgE
CDISC Synonym(s)
Neut Cross-Reactive Binding ADA IgE; Neutralizing Cross-Reactive Binding Antidrug IgE Antibody
CDISC Definition
A measurement of the neutralizing cross-reactive binding antidrug IgE antibody in a biological specimen.
NCI Preferred Term
Neutralizing Cross-Reactive Binding Antidrug Antibody IgE Measurement
xxTEST_J
中性交差反応性結合ADA IgE
CDISC Synonym(s)_J
中和交差反応性結合ADA IgE; 中和交差反応性結合抗薬物IgE抗体
CDISC Definition_J
生物学的標本中の中和交差反応性結合抗薬物 IgE 抗体の測定。
NCI Preferred Term_J
中和交差反応性結合抗薬物抗体IgE測定

Domain
IS
Code
C181191
xxTESTCD
ADNXIGG
xxTEST
Neut Cross-Reactive Binding ADA IgG
CDISC Synonym(s)
Neut Cross-Reactive Binding ADA IgG; Neutralizing Cross-Reactive Binding Antidrug IgG Antibody
CDISC Definition
A measurement of the neutralizing cross-reactive binding antidrug IgG antibody in a biological specimen.
NCI Preferred Term
Neutralizing Cross-Reactive Binding Antidrug Antibody IgG Measurement
xxTEST_J
Neut交差反応性結合ADA IgG
CDISC Synonym(s)_J
中和交差反応性結合ADA IgG; 中和交差反応性結合抗薬物IgG抗体
CDISC Definition_J
生物学的標本中の中和交差反応性結合抗薬物 IgG 抗体の測定。
NCI Preferred Term_J
中和交差反応性結合抗薬物抗体IgG測定

Domain
IS
Code
C181390
xxTESTCD
ADNXIGG1
xxTEST
Neut Cross-Reactive Binding ADA IgG1
CDISC Synonym(s)
Neut Cross-Reactive Binding ADA IgG1; Neutralizing Cross-Reactive Binding Antidrug IgG1 Antibody
CDISC Definition
A measurement of the neutralizing cross-reactive binding antidrug IgG1 antibody in a biological specimen.
NCI Preferred Term
Neutralizing Cross-Reactive Binding Antidrug Antibody IgG1 Measurement
xxTEST_J
Neut交差反応性結合ADA IgG1
CDISC Synonym(s)_J
中和交差反応性結合ADA IgG1; 中和交差反応性結合抗薬物IgG1抗体
CDISC Definition_J
生物学的標本中の中和交差反応性結合抗薬物 IgG1 抗体の測定。
NCI Preferred Term_J
中和交差反応性結合抗薬物抗体IgG1測定

Domain
IS
Code
C181391
xxTESTCD
ADNXIGG2
xxTEST
Neut Cross-Reactive Binding ADA IgG2
CDISC Synonym(s)
Neut Cross-Reactive Binding ADA IgG2; Neutralizing Cross-Reactive Binding Antidrug IgG2 Antibody
CDISC Definition
A measurement of the neutralizing cross-reactive binding antidrug IgG2 antibody in a biological specimen.
NCI Preferred Term
Neutralizing Cross-Reactive Binding Antidrug Antibody IgG2 Measurement
xxTEST_J
Neut交差反応性結合ADA IgG2
CDISC Synonym(s)_J
中和交差反応性結合ADA IgG2; 中和交差反応性結合抗薬物IgG2抗体
CDISC Definition_J
生物学的標本中の中和交差反応性結合抗薬物 IgG2 抗体の測定。
NCI Preferred Term_J
中和交差反応性結合抗薬物抗体IgG2測定

Domain
IS
Code
C181392
xxTESTCD
ADNXIGG3
xxTEST
Neut Cross-Reactive Binding ADA IgG3
CDISC Synonym(s)
Neut Cross-Reactive Binding ADA IgG3; Neutralizing Cross-Reactive Binding Antidrug IgG3 Antibody
CDISC Definition
A measurement of the neutralizing cross-reactive binding antidrug IgG3 antibody in a biological specimen.
NCI Preferred Term
Neutralizing Cross-Reactive Binding Antidrug Antibody IgG3 Measurement
xxTEST_J
Neut交差反応性結合ADA IgG3
CDISC Synonym(s)_J
中和交差反応性結合ADA IgG3; 中和交差反応性結合抗薬物IgG3抗体
CDISC Definition_J
生物学的標本中の中和交差反応性結合抗薬物 IgG3 抗体の測定。
NCI Preferred Term_J
中和交差反応性結合抗薬物抗体IgG3測定

Domain
IS
Code
C181393
xxTESTCD
ADNXIGG4
xxTEST
Neut Cross-Reactive Binding ADA IgG4
CDISC Synonym(s)
Neut Cross-Reactive Binding ADA IgG4; Neutralizing Cross-Reactive Binding Antidrug IgG4 Antibody
CDISC Definition
A measurement of the neutralizing cross-reactive binding antidrug IgG4 antibody in a biological specimen.
NCI Preferred Term
Neutralizing Cross-Reactive Binding Antidrug Antibody IgG4 Measurement
xxTEST_J
Neut交差反応性結合ADA IgG4
CDISC Synonym(s)_J
中和交差反応性結合ADA IgG4; 中和交差反応性結合抗薬物IgG4抗体
CDISC Definition_J
生物学的標本中の中和交差反応性結合抗薬物 IgG4 抗体の測定。
NCI Preferred Term_J
中和交差反応性結合抗薬物抗体IgG4測定

Domain
IS
Code
C181389
xxTESTCD
ADNXIGGM
xxTEST
Neut Cross-Reactive Binding ADA IgG/IgM
CDISC Synonym(s)
Neut Cross-Reactive Binding ADA IgG/IgM; Neutralizing Cross-Reactive Binding Antidrug IgG/IgM Antibody
CDISC Definition
A measurement of the neutralizing cross-reactive binding antidrug IgG and/or IgM antibody in a biological specimen.
NCI Preferred Term
Neutralizing Cross-Reactive Binding Antidrug Antibody IgG/IgM Measurement
xxTEST_J
中性交差反応性結合ADA IgG/IgM
CDISC Synonym(s)_J
中和交差反応性結合ADA IgG/IgM; 中和交差反応性結合抗薬物IgG/IgM抗体
CDISC Definition_J
生物学的標本中の中和交差反応性結合抗薬物 IgG および/または IgM 抗体の測定。
NCI Preferred Term_J
中和交差反応性結合抗薬物抗体IgG/IgM測定

Domain
IS
Code
C181388
xxTESTCD
ADNXIGM
xxTEST
Neut Cross-Reactive Binding ADA IgM
CDISC Synonym(s)
Neut Cross-Reactive Binding ADA IgM; Neutralizing Cross-Reactive Binding Antidrug IgM Antibody
CDISC Definition
A measurement of the neutralizing cross-reactive binding antidrug IgM antibody in a biological specimen.
NCI Preferred Term
Neutralizing Cross-Reactive Binding Antidrug Antibody IgM Measurement
xxTEST_J
中性交差反応性結合ADA IgM
CDISC Synonym(s)_J
中和交差反応性結合ADA IgM; 中和交差反応性結合抗薬物IgM抗体
CDISC Definition_J
生物学的標本中の中和交差反応性結合抗薬物 IgM 抗体の測定。
NCI Preferred Term_J
中和交差反応性結合抗薬物抗体IgM測定

Domain
LB
Code
C102257
xxTESTCD
ADP
xxTEST
Adenosine Diphosphate
CDISC Synonym(s)
Adenosine Diphosphate
CDISC Definition
A measurement of the adenosine diphosphate in a biological specimen.
NCI Preferred Term
Adenosine Diphosphate Measurement
xxTEST_J
アデノシン二リン酸
CDISC Synonym(s)_J
アデノシン二リン酸
CDISC Definition_J
生物標本中のアデノシン二リン酸の​​測定。
NCI Preferred Term_J
アデノシン二リン酸測定

Domain
LB
Code
C74839
xxTESTCD
ADPNCTN
xxTEST
Adiponectin
CDISC Synonym(s)
Adiponectin
CDISC Definition
A measurement of the total adiponectin hormone in a biological specimen.
NCI Preferred Term
Adiponectin Measurement
xxTEST_J
アディポネクチン
CDISC Synonym(s)_J
アディポネクチン
CDISC Definition_J
生物標本中の総アディポネクチンホルモンの測定。
NCI Preferred Term_J
アディポネクチン測定

Domain
LB
Code
C132363
xxTESTCD
ADPNHMW
xxTEST
Adiponectin, High Molecular Weight
CDISC Synonym(s)
Adiponectin, High Molecular Weight
CDISC Definition
A measurement of the high molecular weight adiponectin hormone in a biological specimen.
NCI Preferred Term
High Molecular Weight Adiponectin Measurement
xxTEST_J
アディポネクチン（高分子量）
CDISC Synonym(s)_J
アディポネクチン（高分子量）
CDISC Definition_J
生物標本中の高分子量アディポネクチンホルモンの測定。
NCI Preferred Term_J
高分子量アディポネクチン測定

Domain
RP
Code
C189362
xxTESTCD
ADRNRAGE
xxTEST
Adrenarche Age
CDISC Synonym(s)
Adrenarche Age
CDISC Definition
The age at onset of adrenal androgen-mediated secondary sexual characteristics.
NCI Preferred Term
Adrenarche Age
xxTEST_J
アドレナーケ年齢
CDISC Synonym(s)_J
アドレナーケ年齢
CDISC Definition_J
副腎アンドロゲンを介した二次性徴の発現年齢。
NCI Preferred Term_J
アドレナーケ年齢

Domain
CV
Code
C139035
xxTESTCD
ADUCSEV
xxTEST
Aortic Ductal Coarctation Severity
CDISC Synonym(s)
Aortic Ductal Coarctation Severity; Aortic Juxta-ductal Coarctation Severity
CDISC Definition
The assessment of the severity of ductal aortic coarctation.
NCI Preferred Term
Aortic Juxta-ductal Coarctation Severity
xxTEST_J
大動脈管狭窄症の重症度
CDISC Synonym(s)_J
大動脈管狭窄症の重症度; 大動脈管狭窄症の重症度
CDISC Definition_J
大動脈管狭窄症の重症度の評価。
NCI Preferred Term_J
大動脈管狭窄症の重症度

Domain
MB
Code
C191310
xxTESTCD
ADVNDNA
xxTEST
Adenovirus DNA
CDISC Synonym(s)
Adenovirus DNA
CDISC Definition
A measurement of the DNA from any member of the family Adenoviridae in a biological specimen.
NCI Preferred Term
Adenovirus DNA Measurement
xxTEST_J
アデノウイルスDNA
CDISC Synonym(s)_J
アデノウイルスDNA
CDISC Definition_J
生物標本中のアデノウイルス科の任意のメンバーの DNA の測定。
NCI Preferred Term_J
アデノウイルスDNA測定

Domain
MB
Code
C187838
xxTESTCD
ADVNUAC
xxTEST
Adenovirus Nucleic Acid
CDISC Synonym(s)
Adenovirus Nucleic Acid
CDISC Definition
A measurement of the nucleic acid from any member of the family Adenoviridae in a biological specimen.
NCI Preferred Term
Adenovirus Nucleic Acid Measurement
xxTEST_J
アデノウイルス核酸
CDISC Synonym(s)_J
アデノウイルス核酸
CDISC Definition_J
生物標本中のアデノウイルス科の任意のメンバーの核酸の測定。
NCI Preferred Term_J
アデノウイルス核酸測定

Domain
MB
Code
C198301
xxTESTCD
AERBACT
xxTEST
Aerobic Bacteria
CDISC Synonym(s)
Aerobic Bacteria
CDISC Definition
A measurement of the aerobic bacteria in a biological specimen.
NCI Preferred Term
Aerobic Bacteria Measurement
xxTEST_J
好気性細菌
CDISC Synonym(s)_J
好気性細菌
CDISC Definition_J
生物標本中の好気性細菌の測定。
NCI Preferred Term_J
好気性細菌の測定

Domain
MB
Code
C199965
xxTESTCD
AERODNA
xxTEST
Aeromonas DNA
CDISC Synonym(s)
Aeromonas DNA
CDISC Definition
A measurement of the DNA from any member of the genus Aeromonas in a biological specimen.
NCI Preferred Term
Aeromonas DNA Measurement
xxTEST_J
エロモナスDNA
CDISC Synonym(s)_J
エロモナスDNA
CDISC Definition_J
生物標本中の Aeromonas 属の任意のメンバーの DNA の測定。
NCI Preferred Term_J
エロモナスDNA測定

Domain
MB
Code
C199966
xxTESTCD
AEROMONA
xxTEST
Aeromonas
CDISC Synonym(s)
Aeromonas
CDISC Definition
A measurement of the organisms that are not assigned to the species level but are assigned to the Aeromonas genus level in a biological specimen.
NCI Preferred Term
Aeromonas Measurement
xxTEST_J
エロモナス
CDISC Synonym(s)_J
エロモナス
CDISC Definition_J
生物標本において、種レベルには割り当てられていないが、Aeromonas 属レベルに割り当てられている生物の測定値。
NCI Preferred Term_J
エロモナス測定

Domain
LB
Code
C98706
xxTESTCD
AFACTXAA
xxTEST
Anti-Factor Xa Activity
CDISC Synonym(s)
Anti-Factor Xa Activity
CDISC Definition
A measurement of the ability of antithrombin to inactivate activated Factor X in a biological specimen. This test is used to monitor low molecular weight or unfractionated heparin levels in a biological specimen.
NCI Preferred Term
Anti-Factor Xa Activity Measurement
xxTEST_J
抗第Xa因子活性
CDISC Synonym(s)_J
抗第Xa因子活性
CDISC Definition_J
生体検体中の活性型第X因子を不活化するアンチトロンビンの能力を測定する検査。この検査は、生体検体中の低分子量ヘパリンまたは未分画ヘパリン濃度をモニタリングするために使用されます。
NCI Preferred Term_J
抗第Xa因子活性測定

Domain
MB
Code
C128981
xxTESTCD
AFB
xxTEST
Acid-Fast Bacilli
CDISC Synonym(s)
Acid-Fast Bacilli
CDISC Definition
A measurement of any rod-shaped bacteria that resist decolorizing by acid after accepting an aqueous stain solution, due to the mycolic acids in their cell walls.
NCI Preferred Term
Acid-Fast Bacilli Measurement
xxTEST_J
抗酸菌
CDISC Synonym(s)_J
抗酸菌
CDISC Definition_J
細胞壁に含まれるミコール酸のせいで、水性染色溶液を受容した後、酸による脱色に抵抗する桿菌の測定値。
NCI Preferred Term_J
抗酸菌測定

Domain
LB
Code
C74732
xxTESTCD
AFP
xxTEST
Alpha Fetoprotein
CDISC Synonym(s)
Alpha Fetoprotein; Alpha-1-Fetoprotein
CDISC Definition
A measurement of the alpha fetoprotein in a biological specimen.
NCI Preferred Term
Alpha-fetoprotein Measurement
xxTEST_J
アルファフェトプロテイン
CDISC Synonym(s)_J
アルファフェトプロテイン; アルファ-1-フェトプロテイン
CDISC Definition_J
生物標本中のアルファフェトプロテインの測定。
NCI Preferred Term_J
アルファフェトプロテイン測定

Domain
LB
Code
C147291
xxTESTCD
AFPADJBW
xxTEST
Alpha Fetoprotein Adj for Body Weight
CDISC Synonym(s)
Alpha Fetoprotein Adj for Body Weight
CDISC Definition
A measurement of alpha fetoprotein, which has been adjusted for body weight, in a biological specimen.
NCI Preferred Term
Alpha Fetoprotein Adjusted for Body Weight Measurement
xxTEST_J
体重に対するアルファフェトプロテイン調整値
CDISC Synonym(s)_J
体重に対するアルファフェトプロテイン調整値
CDISC Definition_J
体重に合わせて調整された、生物標本中のアルファフェトプロテインの測定値。
NCI Preferred Term_J
体重測定に合わせて調整されたアルファフェトプロテイン

Domain
LB
Code
C96562
xxTESTCD
AFPL1
xxTEST
Alpha Fetoprotein L1
CDISC Synonym(s)
Alpha Fetoprotein L1
CDISC Definition
A measurement of the alpha fetoprotein L1 in a biological specimen.
NCI Preferred Term
Alpha Fetoprotein L1 Measurement
xxTEST_J
アルファフェトプロテインL1
CDISC Synonym(s)_J
アルファフェトプロテインL1
CDISC Definition_J
生物標本中のアルファフェトプロテイン L1 の測定。
NCI Preferred Term_J
アルファフェトプロテインL1測定

Domain
LB
Code
C96563
xxTESTCD
AFPL2
xxTEST
Alpha Fetoprotein L2
CDISC Synonym(s)
Alpha Fetoprotein L2
CDISC Definition
A measurement of the alpha fetoprotein L2 in a biological specimen.
NCI Preferred Term
Alpha Fetoprotein L2 Measurement
xxTEST_J
アルファフェトプロテインL2
CDISC Synonym(s)_J
アルファフェトプロテインL2
CDISC Definition_J
生物標本中のアルファフェトプロテイン L2 の測定。
NCI Preferred Term_J
アルファフェトプロテインL2測定

Domain
LB
Code
C96564
xxTESTCD
AFPL3
xxTEST
Alpha Fetoprotein L3
CDISC Synonym(s)
Alpha Fetoprotein L3
CDISC Definition
A measurement of the alpha fetoprotein L3 in a biological specimen.
NCI Preferred Term
Alpha Fetoprotein L3 Measurement
xxTEST_J
アルファフェトプロテインL3
CDISC Synonym(s)_J
アルファフェトプロテインL3
CDISC Definition_J
生物標本中のアルファフェトプロテイン L3 の測定。
NCI Preferred Term_J
アルファフェトプロテインL3測定

Domain
LB
Code
C96565
xxTESTCD
AFPL3AFP
xxTEST
A Fetoprotein L3/A Fetoprotein
CDISC Synonym(s)
A Fetoprotein L3/A Fetoprotein
CDISC Definition
A relative measurement (ratio or percentage) of alpha fetoprotein L3 to total alpha fetoprotein in a biological specimen.
NCI Preferred Term
Alpha Fetoprotein L3 to Total Alpha Fetoprotein Ratio Measurement
xxTEST_J
A フェトプロテイン L3/A フェトプロテイン
CDISC Synonym(s)_J
A フェトプロテイン L3/A フェトプロテイン
CDISC Definition_J
生物標本中のアルファ フェトプロテイン L3 と総アルファ フェトプロテインとの相対的な測定値 (比率またはパーセンテージ)。
NCI Preferred Term_J
アルファフェトプロテインL3と総アルファフェトプロテイン比の測定

Domain
MB
Code
C187840
xxTESTCD
AFU
xxTEST
Aspergillus fumigatus
CDISC Synonym(s)
Aspergillus fumigatus
CDISC Definition
A measurement of the Aspergillus fumigatus in a biological specimen.
NCI Preferred Term
Aspergillus fumigatus Measurement
xxTEST_J
アスペルギルス・フミガーツス
CDISC Synonym(s)_J
アスペルギルス・フミガーツス
CDISC Definition_J
生物標本中の Aspergillus fumigatus の測定。
NCI Preferred Term_J
アスペルギルス・フミガーツス測定

Domain
LB
Code
C124334
xxTESTCD
AG1_5
xxTEST
1,5-Anhydroglucitol
CDISC Synonym(s)
1,5-Anhydroglucitol
CDISC Definition
A measurement of the 1,5-anhydroglucitol in a biological specimen.
NCI Preferred Term
1,5-Anhydroglucitol Measurement
xxTEST_J
1,5-無水グルシトール
CDISC Synonym(s)_J
1,5-無水グルシトール
CDISC Definition_J
生物標本中の 1,5-無水グルシトールの測定。
NCI Preferred Term_J
1,5-無水グルシトール測定

Domain
DD
Code
C135383
xxTESTCD
AGEDTH
xxTEST
Age at Death
CDISC Synonym(s)
Age at Death
CDISC Definition
The age at which death occurred. (NCI)
NCI Preferred Term
Age at Death
xxTEST_J
死亡時の年齢
CDISC Synonym(s)_J
死亡時の年齢
CDISC Definition_J
死亡時の年齢。(NCI)
NCI Preferred Term_J
死亡時の年齢

Domain
TS
Code
C49694
xxTESTCD
AGEMAX
xxTEST
Planned Maximum Age of Subjects
CDISC Synonym(s)
Planned Maximum Age of Subjects
CDISC Definition
The anticipated maximum age of the subjects to be entered in a clinical trial. (NCI)
NCI Preferred Term
Planned Maximum Age of Subjects
xxTEST_J
被験者の予定最大年齢
CDISC Synonym(s)_J
被験者の予定最大年齢
CDISC Definition_J
臨床試験に参加する被験者の予想される最大年齢。(NCI)
NCI Preferred Term_J
被験者の予定最大年齢

Domain
TS
Code
C49693
xxTESTCD
AGEMIN
xxTEST
Planned Minimum Age of Subjects
CDISC Synonym(s)
Planned Minimum Age of Subjects
CDISC Definition
The anticipated minimum age of the subjects to be entered in a clinical trial. (NCI)
NCI Preferred Term
Planned Minimum Age of Subjects
xxTEST_J
被験者の予定最低年齢
CDISC Synonym(s)_J
被験者の予定最低年齢
CDISC Definition_J
臨床試験に参加する被験者の予想される最小年齢。(NCI)
NCI Preferred Term_J
被験者の予定最低年齢

Domain
SC
Code
C127060
xxTESTCD
AGESTSMK
xxTEST
Age Started Smoking
CDISC Synonym(s)
Age Started Smoking
CDISC Definition
The age at which the individual began smoking.
NCI Preferred Term
Age When First Smoked a Cigarette Question
xxTEST_J
喫煙開始年齢
CDISC Synonym(s)_J
喫煙開始年齢
CDISC Definition_J
喫煙を開始した年齢。
NCI Preferred Term_J
初めてタバコを吸った年齢に関する質問

Domain
LB
Code
C111126
xxTESTCD
AHBDH
xxTEST
Alpha Hydroxybutyrate Dehydrogenase
CDISC Synonym(s)
Alpha Hydroxybutyrate Dehydrogenase
CDISC Definition
A measurement of the alpha-hydroxybutyrate dehydrogenase in a biological specimen.
NCI Preferred Term
Alpha Hydroxybutyrate Dehydrogenase Measurement
xxTEST_J
アルファヒドロキシ酪酸脱水素酵素
CDISC Synonym(s)_J
アルファヒドロキシ酪酸脱水素酵素
CDISC Definition_J
生物標本中のα-ヒドロキシ酪酸脱水素酵素の測定。
NCI Preferred Term_J
アルファヒドロキシ酪酸脱水素酵素測定

Domain
LB
Code
C181418
xxTESTCD
AHTRZLM
xxTEST
Alpha-Hydroxytriazolam
CDISC Synonym(s)
Alpha-Hydroxytriazolam
CDISC Definition
A measurement of the alpha-hydroxytriazolam a biological specimen.
NCI Preferred Term
Alpha-Hydroxytriazolam Measurement
xxTEST_J
アルファ-ヒドロキシトリアゾラム
CDISC Synonym(s)_J
アルファ-ヒドロキシトリアゾラム
CDISC Definition_J
生物標本中のα-ヒドロキシトリアゾラムの測定。
NCI Preferred Term_J
アルファヒドロキシトリアゾラム測定

Domain
PP
Code
C114234
xxTESTCD
AILAMZ
xxTEST
Accumulation Index using Lambda z
CDISC Synonym(s)
Accumulation Index using Lambda z
CDISC Definition
Predicted accumulation ratio for area under the curve (AUC) calculated using the Lambda z estimated from single dose data.
NCI Preferred Term
Accumulation Index using Lambda z
xxTEST_J
ラムダzを用いた蓄積指数
CDISC Synonym(s)_J
ラムダzを用いた蓄積指数
CDISC Definition_J
単回投与データから推定された Lambda z を使用して計算された曲線下面積 (AUC) の予測蓄積率。
NCI Preferred Term_J
ラムダzを用いた蓄積指数

Domain
RE
Code
C170620
xxTESTCD
AIRTRAP
xxTEST
Air Trapping
CDISC Synonym(s)
Air Trapping
CDISC Definition
A measurement of the gas retention in a specified intrapulmonary space at the end of exhalation.
NCI Preferred Term
Air Trapping Measurement
xxTEST_J
エアトラッピング
CDISC Synonym(s)_J
エアトラッピング
CDISC Definition_J
呼気終了時の指定された肺内空間内のガス保持量の測定値。
NCI Preferred Term_J
エアトラッピング測定

Domain
MB
Code
C221592
xxTESTCD
AJO
xxTEST
Acinetobacter johnsonii
CDISC Synonym(s)
Acinetobacter johnsonii
CDISC Definition
A measurement of Acinetobacter johnsonii in a biological specimen.
NCI Preferred Term
Acinetobacter johnsonii Measurement
xxTEST_J
アシネトバクター・ジョンソン
CDISC Synonym(s)_J
アシネトバクター・ジョンソン
CDISC Definition_J
生物標本中の Acinetobacter johnsonii の測定。
NCI Preferred Term_J
アシネトバクター・ジョンソニー測定

Domain
LB
Code
C202384
xxTESTCD
AKIRSC
xxTEST
Acute Kidney Injury Risk Score
CDISC Synonym(s)
Acute Kidney Injury Risk Score; AKI Risk Score
CDISC Definition
A scoring system that evaluates acute kidney injury risk through the assessment of urine test parameter(s), and which may take into account additional factors.
NCI Preferred Term
Acute Kidney Injury Risk Score
xxTEST_J
急性腎障害リスクスコア
CDISC Synonym(s)_J
急性腎障害リスクスコア; AKIリスクスコア
CDISC Definition_J
尿検査パラメータの評価を通じて急性腎障害のリスクを評価し、追加の要因を考慮に入れることができるスコアリング システム。
NCI Preferred Term_J
急性腎障害リスクスコア

Domain
MB
Code
C221593
xxTESTCD
ALA
xxTEST
Acinetobacter lactucae
CDISC Synonym(s)
Acinetobacter lactucae
CDISC Definition
A measurement of Acinetobacter lactucae in a biological specimen.
NCI Preferred Term
Acinetobacter lactucae Measurement
xxTEST_J
アシネトバクター・ラクトゥカエ
CDISC Synonym(s)_J
アシネトバクター・ラクトゥカエ
CDISC Definition_J
生物標本中の Acinetobacter lactucae の測定。
NCI Preferred Term_J
アシネトバクター・ラクツカエの測定

Domain
LB
Code
C122091
xxTESTCD
ALA
xxTEST
Alanine
CDISC Synonym(s)
Alanine
CDISC Definition
A measurement of the alanine in a biological specimen.
NCI Preferred Term
Alanine Measurement
xxTEST_J
アラニン
CDISC Synonym(s)_J
アラニン
CDISC Definition_J
生物標本中のアラニンの測定。
NCI Preferred Term_J
アラニン測定

Domain
LB
Code
C147292
xxTESTCD
ALA1ALB
xxTEST
Apolipoprotein A1/Apolipoprotein B
CDISC Synonym(s)
Apolipoprotein A1/Apolipoprotein B
CDISC Definition
A relative measurement (ratio or percentage) of the Apolipoprotein A1 to Apolipoprotein B in a biological specimen.
NCI Preferred Term
Apolipoprotein A1 to Apolipoprotein B Ratio Measurement
xxTEST_J
アポリポタンパク質A1/アポリポタンパク質B
CDISC Synonym(s)_J
アポリポタンパク質A1/アポリポタンパク質B
CDISC Definition_J
生物標本中のアポリポタンパク質 A1 とアポリポタンパク質 B の相対的な測定値 (比率またはパーセンテージ)。
NCI Preferred Term_J
アポリポタンパク質A1とアポリポタンパク質Bの比測定

Domain
LB
Code
C158222
xxTESTCD
ALAALB
xxTEST
Apolipoprotein A/Apolipoprotein B
CDISC Synonym(s)
Apolipoprotein A/Apolipoprotein B
CDISC Definition
A relative measurement (ratio) of the total apolipoprotein A to apolipoprotein B in a biological specimen.
NCI Preferred Term
Apolipoprotein A to Apolipoprotein B Ratio Measurement
xxTEST_J
アポリポプロテインA/アポリポプロテインB
CDISC Synonym(s)_J
アポリポプロテインA/アポリポプロテインB
CDISC Definition_J
生物標本中の総アポリポタンパク質 A とアポリポタンパク質 B の相対測定値 (比率)。
NCI Preferred Term_J
アポリポタンパク質Aとアポリポタンパク質Bの比測定

Domain
IS
Code
C214530
xxTESTCD
ALAB
xxTEST
Alloantibody
CDISC Synonym(s)
Alloantibody
CDISC Definition
A measurement of the binding alloantibody in a biological specimen.
NCI Preferred Term
Alloantibody Measurement
xxTEST_J
アロ抗体
CDISC Synonym(s)_J
アロ抗体
CDISC Definition_J
生物学的標本中の結合同種抗体の測定。
NCI Preferred Term_J
同種抗体測定

Domain
LB
Code
C64431
xxTESTCD
ALB
xxTEST
Albumin
CDISC Synonym(s)
Albumin; Microalbumin
CDISC Definition
A measurement of the albumin protein in a biological specimen.
NCI Preferred Term
Albumin Measurement
xxTEST_J
アルブミン
CDISC Synonym(s)_J
アルブミン; 微量アルブミン
CDISC Definition_J
生物標本中のアルブミンタンパク質の測定。
NCI Preferred Term_J
アルブミン測定

Domain
LB
Code
C147293
xxTESTCD
ALBC
xxTEST
Albumin Clearance
CDISC Synonym(s)
Albumin Clearance
CDISC Definition
A measurement of the albumin clearance in a biological specimen.
NCI Preferred Term
Albumin Clearance
xxTEST_J
アルブミンクリアランス
CDISC Synonym(s)_J
アルブミンクリアランス
CDISC Definition_J
生物学的標本中のアルブミンクリアランスの測定。
NCI Preferred Term_J
アルブミンクリアランス

Domain
LB
Code
C74761
xxTESTCD
ALBCREAT
xxTEST
Albumin/Creatinine
CDISC Synonym(s)
Albumin/Creatinine; Microalbumin/Creatinine Ratio
CDISC Definition
A relative measurement (ratio) of the albumin to the creatinine in a biological specimen.
NCI Preferred Term
Albumin To Creatinine Protein Ratio Measurement
xxTEST_J
アルブミン/クレアチニン
CDISC Synonym(s)_J
アルブミン/クレアチニン; 微量アルブミン/クレアチニン比
CDISC Definition_J
生物学的標本中のアルブミンとクレアチニンの相対的な測定値（比率）。
NCI Preferred Term_J
アルブミン対クレアチニンタンパク質比測定

Domain
LB
Code
C150814
xxTESTCD
ALBEXR
xxTEST
Albumin Excretion Rate
CDISC Synonym(s)
Albumin Excretion Rate
CDISC Definition
A measurement of the amount of albumin excreted in a biological specimen over a defined period of time (e.g. one hour).
NCI Preferred Term
Albumin Excretion Rate
xxTEST_J
アルブミン排泄率
CDISC Synonym(s)_J
アルブミン排泄率
CDISC Definition_J
定義された期間（例：1 時間）にわたって生物学的標本中に排泄されたアルブミンの量を測定します。
NCI Preferred Term_J
アルブミン排泄率

Domain
LB
Code
C158228
xxTESTCD
ALBGALB
xxTEST
Glycated Albumin/Albumin
CDISC Synonym(s)
Glycated Albumin/Albumin
CDISC Definition
A relative measurement (ratio or percentage) of the glycated albumin to total albumin in a biological specimen.
NCI Preferred Term
Glycated Albumin to Albumin Ratio Measurement
xxTEST_J
グリコアルブミン/アルブミン
CDISC Synonym(s)_J
グリコアルブミン/アルブミン
CDISC Definition_J
生物学的標本中の総アルブミンに対するグリコアルブミンの相対的な測定値（比率またはパーセンテージ）。
NCI Preferred Term_J
グリコアルブミンとアルブミンの比率測定

Domain
LB
Code
C74894
xxTESTCD
ALBGLOB
xxTEST
Albumin/Globulin
CDISC Synonym(s)
Albumin/Globulin
CDISC Definition
The ratio of albumin to globulin in a biological specimen.
NCI Preferred Term
Albumin to Globulin Ratio Measurement
xxTEST_J
アルブミン/グロブリン
CDISC Synonym(s)_J
アルブミン/グロブリン
CDISC Definition_J
生物標本中のアルブミンとグロブリンの比率。
NCI Preferred Term_J
アルブミン対グロブリン比測定

Domain
LB
Code
C122092
xxTESTCD
ALBGLYCA
xxTEST
Glycated Albumin
CDISC Synonym(s)
Glycated Albumin
CDISC Definition
A measurement of the glycated albumin present in a biological specimen.
NCI Preferred Term
Glycated Albumin Measurement
xxTEST_J
グリコアルブミン
CDISC Synonym(s)_J
グリコアルブミン
CDISC Definition_J
生物学的標本中に存在するグリコアルブミンの測定。
NCI Preferred Term_J
グリコアルブミン測定

Domain
LB
Code
C154734
xxTESTCD
ALBIDX
xxTEST
Albumin Index
CDISC Synonym(s)
Albumin Index
CDISC Definition
A relative measurement (ratio) of the albumin in cerebrospinal fluid to albumin in serum or plasma in a biological specimen.
NCI Preferred Term
Albumin Index
xxTEST_J
アルブミン指数
CDISC Synonym(s)_J
アルブミン指数
CDISC Definition_J
生物学的標本中の脳脊髄液中のアルブミンと血清または血漿中のアルブミンの相対的な測定値（比率）。
NCI Preferred Term_J
アルブミン指数

Domain
LB
Code
C103453
xxTESTCD
ALBPROT
xxTEST
Albumin/Total Protein
CDISC Synonym(s)
Albumin/Total Protein
CDISC Definition
A relative measurement (ratio or percentage) of the albumin to total protein in a biological specimen.
NCI Preferred Term
Albumin to Total Protein Ratio Measurement
xxTEST_J
アルブミン/総タンパク質
CDISC Synonym(s)_J
アルブミン/総タンパク質
CDISC Definition_J
生物標本中のアルブミンと総タンパク質の相対的な測定値（比率またはパーセンテージ）。
NCI Preferred Term_J
アルブミン対総タンパク質比測定

Domain
LB
Code
C154743
xxTESTCD
ALDEPX
xxTEST
Aldrin Epoxidase
CDISC Synonym(s)
Aldrin Epoxidase
CDISC Definition
A measurement of the aldrin epoxidase in a biological specimen.
NCI Preferred Term
Aldrin Epoxidase Measurement
xxTEST_J
アルドリンエポキシダーゼ
CDISC Synonym(s)_J
アルドリンエポキシダーゼ
CDISC Definition_J
生物標本中のアルドリンエポキシダーゼの測定。
NCI Preferred Term_J
アルドリンエポキシダーゼ測定

Domain
LB
Code
C74731
xxTESTCD
ALDOLASE
xxTEST
Aldolase
CDISC Synonym(s)
Aldolase
CDISC Definition
A measurement of the aldolase enzyme in a biological specimen.
NCI Preferred Term
Aldolase Measurement
xxTEST_J
アルドラーゼ
CDISC Synonym(s)_J
アルドラーゼ
CDISC Definition_J
生物標本中のアルドラーゼ酵素の測定。
NCI Preferred Term_J
アルドラーゼ測定

Domain
LB
Code
C202382
xxTESTCD
ALDSTEXR
xxTEST
Aldosterone Excretion Rate
CDISC Synonym(s)
Aldosterone Excretion Rate
CDISC Definition
A measurement of the amount of aldosterone being excreted in a biological specimen over a defined amount of time (e.g. one hour).
NCI Preferred Term
Aldosterone Excretion Rate
xxTEST_J
アルドステロン排泄率
CDISC Synonym(s)_J
アルドステロン排泄率
CDISC Definition_J
定義された時間（例：1 時間）にわたって生物学的標本中に排出されるアルドステロンの量を測定します。
NCI Preferred Term_J
アルドステロン排泄率

Domain
LB
Code
C74841
xxTESTCD
ALDSTRN
xxTEST
Aldosterone
CDISC Synonym(s)
Aldosterone
CDISC Definition
A measurement of the aldosterone hormone in a biological specimen.
NCI Preferred Term
Aldosterone Measurement
xxTEST_J
アルドステロン
CDISC Synonym(s)_J
アルドステロン
CDISC Definition_J
生物標本中のアルドステロン ホルモンの測定。
NCI Preferred Term_J
アルドステロン測定

Domain
LB
Code
C184566
xxTESTCD
ALFNTNL
xxTEST
Alfentanil
CDISC Synonym(s)
Alfentanil
CDISC Definition
A measurement of the alfentanil in a biological specimen.
NCI Preferred Term
Alfentanil Measurement
xxTEST_J
アルフェンタニル
CDISC Synonym(s)_J
アルフェンタニル
CDISC Definition_J
生物標本中のアルフェンタニルの測定。
NCI Preferred Term_J
アルフェンタニル測定

Domain
IS
Code
C214672
xxTESTCD
ALIGGAB
xxTEST
IgG Alloantibody
CDISC Synonym(s)
IgG Alloantibody
CDISC Definition
A measurement of the binding IgG alloantibody in a biological specimen.
NCI Preferred Term
IgG Alloantibody Measurement
xxTEST_J
IgGアロ抗体
CDISC Synonym(s)_J
IgGアロ抗体
CDISC Definition_J
生物学的標本中の結合IgG同種抗体の測定。
NCI Preferred Term_J
IgGアロ抗体測定

Domain
MI
Code
C154805
xxTESTCD
ALK
xxTEST
ALK Protein
CDISC Synonym(s)
ALK Protein
CDISC Definition
A measurement of the ALK receptor tyrosine kinase in a biological specimen.
NCI Preferred Term
ALK Protein Measurement
xxTEST_J
ALKタンパク質
CDISC Synonym(s)_J
ALKタンパク質
CDISC Definition_J
生物標本中の ALK 受容体チロシンキナーゼの測定。
NCI Preferred Term_J
ALKタンパク質測定

Domain
LB
Code
C154762
xxTESTCD
ALLOILE
xxTEST
Alloisoleucine
CDISC Synonym(s)
Alloisoleucine
CDISC Definition
A measurement of the alloisoleucine in a biological specimen.
NCI Preferred Term
Alloisoleucine Measurement
xxTEST_J
アロイソロイシン
CDISC Synonym(s)_J
アロイソロイシン
CDISC Definition_J
生物標本中のアロイソロイシンの測定。
NCI Preferred Term_J
アロイソロイシン測定

Domain
LB
Code
C184519
xxTESTCD
ALOX5
xxTEST
Arachidonate 5-Lipoxygenase
CDISC Synonym(s)
5-Lipoxygenase; 5-LO; 5-LOX; ALOX5; Arachidonate 5-Lipoxygenase
CDISC Definition
A measurement of the arachidonate 5-lipoxygenase in a biological specimen.
NCI Preferred Term
Arachidonate 5-Lipoxygenase Measurement
xxTEST_J
アラキドン酸5-リポキシゲナーゼ
CDISC Synonym(s)_J
5-リポキシゲナーゼ; 5-LO; 5-LOX; ALOX5; アラキドン酸5-リポキシゲナーゼ
CDISC Definition_J
生物標本中のアラキドン酸 5-リポキシゲナーゼの測定。
NCI Preferred Term_J
アラキドン酸5-リポキシゲナーゼ測定

Domain
LB
Code
C64432
xxTESTCD
ALP
xxTEST
Alkaline Phosphatase
CDISC Synonym(s)
Alkaline Phosphatase
CDISC Definition
A measurement of the alkaline phosphatase in a biological specimen.
NCI Preferred Term
Alkaline Phosphatase Measurement
xxTEST_J
アルカリホスファターゼ
CDISC Synonym(s)_J
アルカリホスファターゼ
CDISC Definition_J
生物標本中のアルカリホスファターゼの測定。
NCI Preferred Term_J
アルカリホスファターゼ測定

Domain
LB
Code
C147294
xxTESTCD
ALPBALP
xxTEST
Alk Phos, Bone/Total Alk Phos
CDISC Synonym(s)
Alk Phos, Bone/Total Alk Phos; Alkaline Phosphatase, Bone/Total Alkaline Phosphatase
CDISC Definition
A relative measurement (ratio or percentage) of the bone specific alkaline phosphatase isoform to total alkaline phosphatase in a biological specimen.
NCI Preferred Term
Bone Alkaline Phosphatase to Total Alkaline Phosphatase Ratio Measurement
xxTEST_J
アルカリホス、骨/総アルカリホス
CDISC Synonym(s)_J
アルカリホスファターゼ、骨／総アルカリホスファターゼ；アルカリホスファターゼ、骨／総アルカリホスファターゼ
CDISC Definition_J
生物標本中の骨特異的アルカリホスファターゼアイソフォームと総アルカリホスファターゼの相対測定値（比率またはパーセンテージ）。
NCI Preferred Term_J
骨アルカリホスファターゼと総アルカリホスファターゼの比測定

Domain
LB
Code
C221548
xxTESTCD
ALPBIALP
xxTEST
Alk Phos, Biliary/Total Alk Phos
CDISC Synonym(s)
Alk Phos, Bile/Total Alk Phos; Alk Phos, Biliary/Total Alk Phos
CDISC Definition
A relative measurement (ratio or percentage) of the biliary specific alkaline phosphatase isoform to total alkaline phosphatase in a biological specimen.
NCI Preferred Term
Biliary Alkaline Phosphatase to Alkaline Phosphatase Ratio Measurement
xxTEST_J
アルカリホス、胆汁中/総アルカリホス
CDISC Synonym(s)_J
アルカリホス、胆汁/総アルカリホス; アルカリホス、胆汁/総アルカリホス
CDISC Definition_J
生物学的標本中の胆汁特異的アルカリホスファターゼアイソフォームと総アルカリホスファターゼの相対的な測定値（比率またはパーセンテージ）。
NCI Preferred Term_J
胆汁アルカリホスファターゼとアルカリホスファターゼの比測定

Domain
LB
Code
C92287
xxTESTCD
ALPBS
xxTEST
Bone Specific Alkaline Phosphatase
CDISC Synonym(s)
Bone Specific Alkaline Phosphatase
CDISC Definition
A measurement of the bone specific alkaline phosphatase isoform in a biological specimen.
NCI Preferred Term
Bone Specific Alkaline Phosphatase Measurement
xxTEST_J
骨特異的アルカリホスファターゼ
CDISC Synonym(s)_J
骨特異的アルカリホスファターゼ
CDISC Definition_J
生物標本中の骨特異的アルカリホスファターゼアイソフォームの測定。
NCI Preferred Term_J
骨特異的アルカリホスファターゼ測定

Domain
LB
Code
C79438
xxTESTCD
ALPCREAT
xxTEST
Alkaline Phosphatase/Creatinine
CDISC Synonym(s)
Alkaline Phosphatase/Creatinine
CDISC Definition
A relative measurement (ratio or percentage) of the alkaline phosphatase to creatinine in a biological specimen.
NCI Preferred Term
Alkaline Phosphatase to Creatinine Ratio Measurement
xxTEST_J
アルカリホスファターゼ/クレアチニン
CDISC Synonym(s)_J
アルカリホスファターゼ/クレアチニン
CDISC Definition_J
生物標本中のアルカリホスファターゼとクレアチニンの相対的な測定値（比率またはパーセンテージ）。
NCI Preferred Term_J
アルカリホスファターゼ対クレアチニン比測定

Domain
LB
Code
C165942
xxTESTCD
ALPEXR
xxTEST
Alkaline Phosphatase Excretion Rate
CDISC Synonym(s)
Alkaline Phosphatase Excretion Rate
CDISC Definition
A measurement of the amount of alkaline phosphatase being excreted in a biological specimen over a defined amount of time (e.g. one hour).
NCI Preferred Term
Alkaline Phosphatase Excretion Rate
xxTEST_J
アルカリホスファターゼ排泄率
CDISC Synonym(s)_J
アルカリホスファターゼ排泄率
CDISC Definition_J
定義された時間（例：1 時間）にわたって生物学的標本中に排出されるアルカリホスファターゼの量を測定します。
NCI Preferred Term_J
アルカリホスファターゼ排泄率

Domain
MK
Code
C191306
xxTESTCD
ALPHANGL
xxTEST
Alpha Angle
CDISC Synonym(s)
Alpha Angle; Alpha Angle of the Hip
CDISC Definition
A measurement of the angle between the line from the center of the femoral head to the center of the femoral neck at its narrowest point and the line from the center of the femoral head to a point where the distance from the bone to the center of the head
NCI Preferred Term
Alpha Angle of the Hip
xxTEST_J
アルファ角度
CDISC Synonym(s)_J
アルファ角; 股関節のアルファ角
CDISC Definition_J
大腿骨頭の中心から大腿骨頸部の最も狭い部分の中心までの線と、大腿骨頭の中心から骨から頭の中心までの距離が
NCI Preferred Term_J
股関節のアルファ角

Domain
LB
Code
C147295
xxTESTCD
ALPIALP
xxTEST
Alk Phos, Intestinal/Total Alk Phos
CDISC Synonym(s)
Alk Phos, Intestinal/Total Alk Phos; Alkaline Phosphatase, Intestinal/Total Alkaline Phosphatase
CDISC Definition
A relative measurement (ratio or percentage) of the intestinal specific alkaline phosphatase isoform to total alkaline phosphatase in a biological specimen.
NCI Preferred Term
Intestinal Alkaline Phosphatase to Total Alkaline Phosphatase Ratio Measurement
xxTEST_J
アルカリホス、腸管/総アルカリホス
CDISC Synonym(s)_J
アルカリホスファターゼ、腸管/総アルカリホスファターゼ
CDISC Definition_J
生物学的標本中の腸特異的アルカリホスファターゼアイソフォームと総アルカリホスファターゼの相対的な測定値（比率またはパーセンテージ）。
NCI Preferred Term_J
腸管アルカリホスファターゼと総アルカリホスファターゼの比測定

Domain
LB
Code
C119266
xxTESTCD
ALPIS
xxTEST
Intestinal Specific Alkaline Phosphatase
CDISC Synonym(s)
Intestinal Specific Alkaline Phosphatase
CDISC Definition
A measurement of the intestinal specific alkaline phosphatase isoform in a biological specimen.
NCI Preferred Term
Intestinal Specific Alkaline Phosphatase Measurement
xxTEST_J
腸管特異的アルカリホスファターゼ
CDISC Synonym(s)_J
腸管特異的アルカリホスファターゼ
CDISC Definition_J
生物標本中の腸特異的アルカリホスファターゼアイソフォームの測定。
NCI Preferred Term_J
腸管特異的アルカリホスファターゼ測定

Domain
LB
Code
C139091
xxTESTCD
ALPISOE
xxTEST
Alkaline Phosphatase Isoenzyme
CDISC Synonym(s)
Alkaline Phosphatase Isoenzyme
CDISC Definition
A measurement of the alkaline phosphatase isoenzyme in a biological specimen.
NCI Preferred Term
Alkaline Phosphatase Isoenzyme Measurement
xxTEST_J
アルカリホスファターゼアイソザイム
CDISC Synonym(s)_J
アルカリホスファターゼアイソザイム
CDISC Definition_J
生物標本中のアルカリホスファターゼアイソザイムの測定。
NCI Preferred Term_J
アルカリホスファターゼアイソザイム測定

Domain
LB
Code
C147296
xxTESTCD
ALPLALP
xxTEST
Alk Phos, Liver/Total Alk Phos
CDISC Synonym(s)
Alk Phos, Liver/Total Alk Phos; Alkaline Phosphatase, Liver/Total Alkaline Phosphatase
CDISC Definition
A relative measurement (ratio or percentage) of the liver specific alkaline phosphatase isoform to total alkaline phosphatase in a biological specimen.
NCI Preferred Term
Liver Alkaline Phosphatase to Total Alkaline Phosphatase Ratio Measurement
xxTEST_J
アルカリホス、肝臓/総アルカリホス
CDISC Synonym(s)_J
アルカリホスファターゼ、肝臓／総アルカリホスファターゼ
CDISC Definition_J
生物学的標本中の肝臓特異的アルカリホスファターゼアイソフォームと総アルカリホスファターゼの相対的な測定値（比率またはパーセンテージ）。
NCI Preferred Term_J
肝臓アルカリホスファターゼと総アルカリホスファターゼの比測定

Domain
LB
Code
C189497
xxTESTCD
ALPLBALP
xxTEST
Alk Phos, Liver + Bone/Total Alk Phos
CDISC Synonym(s)
Alk Phos, Liver + Bone/Total Alk Phos
CDISC Definition
A relative measurement (ratio or percentage) of the liver and bone specific alkaline phosphatase isoforms to total alkaline phosphatase in a biological specimen.
NCI Preferred Term
Liver and Bone Specific Alkaline Phosphatase Isoform to Alkaline Phosphatase Ratio Measurement
xxTEST_J
アルカリホス、肝臓+骨/総アルカリホス
CDISC Synonym(s)_J
アルカリホス、肝臓+骨/総アルカリホス
CDISC Definition_J
生物標本中の総アルカリホスファターゼに対する肝臓および骨特異的アルカリホスファターゼアイソフォームの相対測定値（比率またはパーセンテージ）。
NCI Preferred Term_J
肝臓および骨特異的アルカリホスファターゼアイソフォームとアルカリホスファターゼ比の測定

Domain
LB
Code
C119267
xxTESTCD
ALPLS
xxTEST
Liver Specific Alkaline Phosphatase
CDISC Synonym(s)
Liver Specific Alkaline Phosphatase
CDISC Definition
A measurement of the liver specific alkaline phosphatase isoform in a biological specimen.
NCI Preferred Term
Liver Specific Alkaline Phosphatase Measurement
xxTEST_J
肝特異的アルカリホスファターゼ
CDISC Synonym(s)_J
肝特異的アルカリホスファターゼ
CDISC Definition_J
生物学的標本中の肝臓特異的アルカリホスファターゼアイソフォームの測定。
NCI Preferred Term_J
肝特異的アルカリホスファターゼ測定

Domain
LB
Code
C221547
xxTESTCD
ALPMALP
xxTEST
Alk Phos, Macro/Total Alk Phos
CDISC Synonym(s)
Alk Phos, Macro/Total Alk Phos; Alk Phos, Macrohepatic/Total Alk Phos
CDISC Definition
A relative measurement (ratio or percentage) of the macrohepatic specific alkaline phosphatase isoform to total alkaline phosphatase in a biological specimen.
NCI Preferred Term
Macrohepatic Alkaline Phosphatase to Alkaline Phosphatase Ratio Measurement
xxTEST_J
アルカリホス、マクロ/総アルカリホス
CDISC Synonym(s)_J
Alk フォス、マクロ/総 Alk フォス; Alk フォス、マクロ肝臓/総 Alk フォス
CDISC Definition_J
生物標本中の総アルカリホスファターゼに対する大肝特異的アルカリホスファターゼアイソフォームの相対測定値（比率またはパーセンテージ）。
NCI Preferred Term_J
マクロ肝アルカリホスファターゼとアルカリホスファターゼの比測定

Domain
LB
Code
C184508
xxTESTCD
ALPPALP
xxTEST
Alk Phos, Placental/Total Alk Phos
CDISC Synonym(s)
Alk Phos, Placental/Total Alk Phos; Alkaline Phosphatase, Placental/Total Alkaline Phosphatase
CDISC Definition
A relative measurement (ratio or percentage) of the placental specific alkaline phosphatase isoform to total alkaline phosphatase in a biological specimen.
NCI Preferred Term
Placental Alkaline Phosphatase to Total Alkaline Phosphatase Measurement
xxTEST_J
アルカリホス、胎盤/総アルカリホス
CDISC Synonym(s)_J
アルカリホスファターゼ、胎盤性/総アルカリホスファターゼ；アルカリホスファターゼ、胎盤性/総アルカリホスファターゼ
CDISC Definition_J
生物学的標本中の総アルカリホスファターゼに対する胎盤特異的アルカリホスファターゼアイソフォームの相対的測定値（比率またはパーセンテージ）。
NCI Preferred Term_J
胎盤アルカリホスファターゼから総アルカリホスファターゼの測定

Domain
LB
Code
C184509
xxTESTCD
ALPPS
xxTEST
Placental Specific Alkaline Phosphatase
CDISC Synonym(s)
Placental Specific Alkaline Phosphatase
CDISC Definition
A measurement of the placental specific alkaline phosphatase isoform in a biological specimen.
NCI Preferred Term
Placental Specific Alkaline Phosphatase Measurement
xxTEST_J
胎盤特異的アルカリホスファターゼ
CDISC Synonym(s)_J
胎盤特異的アルカリホスファターゼ
CDISC Definition_J
生物標本中の胎盤特異的アルカリホスファターゼアイソフォームの測定。
NCI Preferred Term_J
胎盤特異的アルカリホスファターゼ測定

Domain
LB
Code
C75370
xxTESTCD
ALPRZLM
xxTEST
Alprazolam
CDISC Synonym(s)
Alprazolam
CDISC Definition
A measurement of the alprazolam present in a biological specimen.
NCI Preferred Term
Alprazolam Measurement
xxTEST_J
アルプラゾラム
CDISC Synonym(s)_J
アルプラゾラム
CDISC Definition_J
生物標本中に存在するアルプラゾラムの測定。
NCI Preferred Term_J
アルプラゾラム測定

Domain
LB
Code
C163419
xxTESTCD
ALS
xxTEST
Acid Labile Subunit
CDISC Synonym(s)
Acid Labile Subunit; ALS; IGFALS; Insulin Like Growth Factor Binding Protein Acid Labile Subunit
CDISC Definition
A measurement of the acid labile subunit in a biological specimen.
NCI Preferred Term
Acid Labile Subunit Measurement
xxTEST_J
酸不安定サブユニット
CDISC Synonym(s)_J
酸不安定サブユニット; ALS; IGFALS; インスリン様成長因子結合タンパク質酸不安定サブユニット
CDISC Definition_J
生物標本中の酸不安定サブユニットの測定。
NCI Preferred Term_J
酸不安定サブユニット測定

Domain
LB
Code
C64433
xxTESTCD
ALT
xxTEST
Alanine Aminotransferase
CDISC Synonym(s)
Alanine Aminotransferase; SGPT
CDISC Definition
A measurement of the alanine aminotransferase in a biological specimen.
NCI Preferred Term
Alanine Aminotransferase Measurement
xxTEST_J
アラニンアミノトランスフェラーゼ
CDISC Synonym(s)_J
アラニンアミノトランスフェラーゼ; SGPT
CDISC Definition_J
生物標本中のアラニンアミノトランスフェラーゼの測定。
NCI Preferred Term_J
アラニンアミノトランスフェラーゼ測定

Domain
LB
Code
C106498
xxTESTCD
ALTAST
xxTEST
ALT/AST
CDISC Synonym(s)
ALT/AST
CDISC Definition
A relative measurement (ratio or percentage) of the alanine aminotransferase (ALT) to aspartate aminotransferase (AST) present in a sample.
NCI Preferred Term
Alanine Aminotransferase to Aspartate Aminotransferase Ratio Measurement
xxTEST_J
ALT/AST
CDISC Synonym(s)_J
ALT/AST
CDISC Definition_J
サンプル中に存在するアラニンアミノトランスフェラーゼ (ALT) とアスパラギン酸アミノトランスフェラーゼ (AST) の相対的な測定値 (比率またはパーセンテージ)。
NCI Preferred Term_J
アラニンアミノトランスフェラーゼとアスパラギン酸アミノトランスフェラーゼの比率測定

Domain
LB
Code
C103349
xxTESTCD
ALTCPHRL
xxTEST
Alpha Tocopherol
CDISC Synonym(s)
Alpha Tocopherol
CDISC Definition
A measurement of the alpha tocopherol in a biological specimen.
NCI Preferred Term
Alpha Tocopherol Measurement
xxTEST_J
アルファトコフェロール
CDISC Synonym(s)_J
アルファトコフェロール
CDISC Definition_J
生物標本中のアルファトコフェロールの測定。
NCI Preferred Term_J
アルファトコフェロール測定

Domain
LB
Code
C111127
xxTESTCD
ALUMINUM
xxTEST
Aluminum
CDISC Synonym(s)
Al; Aluminum
CDISC Definition
A measurement of aluminum in a biological specimen.
NCI Preferred Term
Aluminum Measurement
xxTEST_J
アルミニウム
CDISC Synonym(s)_J
Al; アルミニウム
CDISC Definition_J
生物標本中のアルミニウムの測定。
NCI Preferred Term_J
アルミニウム測定

Domain
RE
Code
C156584
xxTESTCD
ALVVOL
xxTEST
Alveolar Volume
CDISC Synonym(s)
Alveolar Volume; VA
CDISC Definition
The quantity of gas that enters the alveoli during inspiration.
NCI Preferred Term
Alveolar Volume
xxTEST_J
肺胞容積
CDISC Synonym(s)_J
肺胞容積; VA
CDISC Definition_J
吸気時に肺胞に入るガスの量。
NCI Preferred Term_J
肺胞容積

Domain
MB
Code
C209633
xxTESTCD
ALW
xxTEST
Acinetobacter lwoffii
CDISC Synonym(s)
Acinetobacter lwoffii
CDISC Definition
A measurement of the Acinetobacter lwoffii in a biological specimen.
NCI Preferred Term
Acinetobacter Iwoffii Measurement
xxTEST_J
アシネトバクター・ルウォフィ
CDISC Synonym(s)_J
アシネトバクター・ルウォフィ
CDISC Definition_J
生物標本中の Acinetobacter lwoffii の測定。
NCI Preferred Term_J
アシネトバクター・イウォフィ測定

Domain
LB
Code
C184539
xxTESTCD
AM2201
xxTEST
AM-2201
CDISC Synonym(s)
AM-2201; AM2201
CDISC Definition
A measurement of the synthetic cannabinoid AM-2201 in a biological specimen.
NCI Preferred Term
AM-2201 Measurement
xxTEST_J
AM-2201
CDISC Synonym(s)_J
AM-2201; AM2201
CDISC Definition_J
生物標本中の合成カンナビノイド AM-2201 の測定。
NCI Preferred Term_J
AM-2201測定

Domain
LB
Code
C184538
xxTESTCD
AM694N5H
xxTEST
AM694 N-5-hydroxypentyl
CDISC Synonym(s)
AM694 N-5-hydroxypentyl
CDISC Definition
A measurement of the synthetic cannabinoid metabolite AM694 N-5-hydroxypentyl in a biological specimen.
NCI Preferred Term
AM694 N-5-hydroxypentyl Measurement
xxTEST_J
AM694 N-5-ヒドロキシペンチル
CDISC Synonym(s)_J
AM694 N-5-ヒドロキシペンチル
CDISC Definition_J
生物標本中の合成カンナビノイド代謝物 AM694 N-5-ヒドロキシペンチルの測定。
NCI Preferred Term_J
AM694 N-5-ヒドロキシペンチル測定

Domain
MI
Code
C132364
xxTESTCD
AMACR
xxTEST
Alpha-Methylacyl Coenzyme A Racemase
CDISC Synonym(s)
Alpha-Methylacyl Coenzyme A Racemase
CDISC Definition
A measurement of the alpha-methylacyl coenzyme A racemase in a biological specimen.
NCI Preferred Term
Alpha-Methylacyl Coenzyme A Racemase Measurement
xxTEST_J
α-メチルアシルコエンザイムAラセマーゼ
CDISC Synonym(s)_J
α-メチルアシルコエンザイムAラセマーゼ
CDISC Definition_J
生物標本中のα-メチルアシルコエンザイムAラセマーゼの測定。
NCI Preferred Term_J
α-メチルアシルコエンザイムAラセマーゼ測定

Domain
LB
Code
C132364
xxTESTCD
AMACR
xxTEST
Alpha-Methylacyl Coenzyme A Racemase
CDISC Synonym(s)
Alpha-Methylacyl Coenzyme A Racemase
CDISC Definition
A measurement of the alpha-methylacyl coenzyme A racemase in a biological specimen.
NCI Preferred Term
Alpha-Methylacyl Coenzyme A Racemase Measurement
xxTEST_J
α-メチルアシルコエンザイムAラセマーゼ
CDISC Synonym(s)_J
α-メチルアシルコエンザイムAラセマーゼ
CDISC Definition_J
生物標本中のα-メチルアシルコエンザイムAラセマーゼの測定。
NCI Preferred Term_J
α-メチルアシルコエンザイムAラセマーゼ測定

Domain
LB
Code
C75363
xxTESTCD
AMBRBTL
xxTEST
Amobarbital
CDISC Synonym(s)
Amobarbital
CDISC Definition
A measurement of the amobarbital present in a biological specimen.
NCI Preferred Term
Amobarbital Measurement
xxTEST_J
アモバルビタール
CDISC Synonym(s)_J
アモバルビタール
CDISC Definition_J
生物学的標本中に存在するアモバルビタールの測定。
NCI Preferred Term_J
アモバルビタール測定

Domain
LB
Code
C132365
xxTESTCD
AMCRMRNA
xxTEST
AMACR mRNA
CDISC Synonym(s)
AMACR mRNA
CDISC Definition
A measurement of the alpha-methylacyl coenzyme A racemase mRNA in a biological specimen.
NCI Preferred Term
Alpha-Methylacyl Coenzyme A Racemase mRNA Measurement
xxTEST_J
AMACR mRNA
CDISC Synonym(s)_J
AMACR mRNA
CDISC Definition_J
生物標本中のα-メチルアシルコエンザイムAラセマーゼmRNAの測定。
NCI Preferred Term_J
α-メチルアシルコエンザイムAラセマーゼmRNA測定

Domain
RP
Code
C204695
xxTESTCD
AMENSIND
xxTEST
Actively Menstruating Indicator
CDISC Synonym(s)
Actively Menstruating Indicator
CDISC Definition
An indication as to whether the subject is menstruating at the time the question is asked.
NCI Preferred Term
Actively Menstruating Indicator
xxTEST_J
月経中インジケーター
CDISC Synonym(s)_J
月経中インジケーター
CDISC Definition_J
質問時に対象者が月経中であるかどうかを示します。
NCI Preferred Term_J
月経中インジケーター

Domain
LB
Code
C120625
xxTESTCD
AMH
xxTEST
Anti-Mullerian Hormone
CDISC Synonym(s)
Anti-Mullerian Hormone
CDISC Definition
A measurement of the anti-Mullerian hormone in a biological specimen.
NCI Preferred Term
Anti-Mullerian Hormone Measurement
xxTEST_J
抗ミュラー管ホルモン
CDISC Synonym(s)_J
抗ミュラー管ホルモン
CDISC Definition_J
生物標本中の抗ミュラー管ホルモンの測定。
NCI Preferred Term_J
抗ミュラー管ホルモン測定

Domain
EG
Code
C116140
xxTESTCD
AMIEGCHG
xxTEST
Acute Myocardial Ischemia ECG Change
CDISC Synonym(s)
Acute Myocardial Ischemia ECG Change
CDISC Definition
An electrocardiographic finding assessment of new or presumed new significant ST-segment-T wave (ST-T) changes or new left bundle branch block consistent with acute myocardial ischemia. (Thygesen K, Alpert JS, Jaffe AS, Simoons ML, et al.; Joint ESC/ACCF/
NCI Preferred Term
Acute Myocardial Ischemia by ECG Assessment
xxTEST_J
急性心筋虚血心電図変化
CDISC Synonym(s)_J
急性心筋虚血心電図変化
CDISC Definition_J
心電図所見の評価では、急性心筋虚血に一致する新規または推定される新規の有意なST部分T波（ST-T）変化または新規の左脚ブロックが評価されます。（Thygesen K、Alpert JS、Jaffe AS、Simoons ML、et al。; Joint ESC/ACCF/
NCI Preferred Term_J
心電図による急性心筋虚血の評価

Domain
LB
Code
C186023
xxTESTCD
AMITRPTL
xxTEST
Amitriptyline
CDISC Synonym(s)
Amitriptyline
CDISC Definition
A measurement of the amitriptyline in a biological specimen.
NCI Preferred Term
Amitriptyline Measurement
xxTEST_J
アミトリプチリン
CDISC Synonym(s)_J
アミトリプチリン
CDISC Definition_J
生物標本中のアミトリプチリンの測定。
NCI Preferred Term_J
アミトリプチリン測定

Domain
LB
Code
C74799
xxTESTCD
AMMONIA
xxTEST
Ammonia
CDISC Synonym(s)
Ammonia; NH3
CDISC Definition
A measurement of the ammonia in a specimen.
NCI Preferred Term
Ammonia Measurement
xxTEST_J
アンモニア
CDISC Synonym(s)_J
アンモニア; NH3
CDISC Definition_J
標本内のアンモニアの測定。
NCI Preferred Term_J
アンモニア測定

Domain
LB
Code
C186024
xxTESTCD
AMNM
xxTEST
Ammonium
CDISC Synonym(s)
Ammonium; Ammonium Ion; NH4+
CDISC Definition
A measurement of the ammonium ion (NH4+) in a biological specimen.
NCI Preferred Term
Ammonium Measurement
xxTEST_J
アンモニウム
CDISC Synonym(s)_J
アンモニウム; アンモニウムイオン; NH4+
CDISC Definition_J
生物標本中のアンモニウムイオン (NH4+) の測定。
NCI Preferred Term_J
アンモニウム測定

Domain
LB
Code
C186025
xxTESTCD
AMNMCRT
xxTEST
Ammonium/Creatinine
CDISC Synonym(s)
Ammonium/Creatinine
CDISC Definition
A relative measurement (ratio) of ammonium to creatinine in a biological specimen.
NCI Preferred Term
Ammonium to Creatinine Ratio Measurement
xxTEST_J
アンモニウム/クレアチニン
CDISC Synonym(s)_J
アンモニウム/クレアチニン
CDISC Definition_J
生物標本中のアンモニウムとクレアチニンの相対的な測定値（比率）。
NCI Preferred Term_J
アンモニウム対クレアチニン比測定

Domain
LB
Code
C81183
xxTESTCD
AMNOACID
xxTEST
Amino Acids
CDISC Synonym(s)
AA; Amino Acids
CDISC Definition
A measurement of the total amino acids in a biological specimen.
NCI Preferred Term
Amino Acid Measurement
xxTEST_J
アミノ酸
CDISC Synonym(s)_J
AA; アミノ酸
CDISC Definition_J
生物標本中のアミノ酸の総量の測定。
NCI Preferred Term_J
アミノ酸測定

Domain
LB
Code
C204639
xxTESTCD
AMNPHTH1
xxTEST
1-Aminonaphthalene
CDISC Synonym(s)
1-Aminonaphthalene; 1-Naphthylamine
CDISC Definition
A measurement of the 1-aminonaphthalene in a specimen.
NCI Preferred Term
1-Aminonaphthalene Measurement
xxTEST_J
1-アミノナフタレン
CDISC Synonym(s)_J
1-アミノナフタレン; 1-ナフチルアミン
CDISC Definition_J
標本中の1-アミノナフタレンの測定。
NCI Preferred Term_J
1-アミノナフタレン測定

Domain
LB
Code
C204640
xxTESTCD
AMNPHTH2
xxTEST
2-Aminonaphthalene
CDISC Synonym(s)
2-Aminonaphthalene; 2-Naphthylamine
CDISC Definition
A measurement of the 2-aminonaphthalene in a specimen.
NCI Preferred Term
2-Aminonaphthalene Measurement
xxTEST_J
2-アミノナフタレン
CDISC Synonym(s)_J
2-アミノナフタレン; 2-ナフチルアミン
CDISC Definition_J
標本中の2-アミノナフタレンの測定。
NCI Preferred Term_J
2-アミノナフタレン測定

Domain
LB
Code
C74666
xxTESTCD
AMORPHSD
xxTEST
Amorphous Sediment
CDISC Synonym(s)
Amorphous Debris; Amorphous Sediment
CDISC Definition
A measurement of the amorphous sediment present in a biological specimen.
NCI Preferred Term
Amorphous Sediment Measurement
xxTEST_J
非晶質堆積物
CDISC Synonym(s)_J
非晶質堆積物
CDISC Definition_J
生物標本中に存在する非晶質沈殿物の測定。
NCI Preferred Term_J
非晶質堆積物の測定

Domain
LB
Code
C75347
xxTESTCD
AMPEA
xxTEST
Alpha-Methylphenethylamine
CDISC Synonym(s)
Alpha-Methylphenethylamine; Amphetamine
CDISC Definition
A measurement of the alpha-methylphenethylamine in a biological specimen.
NCI Preferred Term
Amphetamine Measurement
xxTEST_J
アルファ-メチルフェネチルアミン
CDISC Synonym(s)_J
アルファメチルフェネチルアミン; アンフェタミン
CDISC Definition_J
生物標本中のアルファ-メチルフェネチルアミンの測定。
NCI Preferred Term_J
アンフェタミン測定

Domain
LB
Code
C74687
xxTESTCD
AMPHET
xxTEST
Amphetamine
CDISC Synonym(s)
Amphetamine; Amphetamines
CDISC Definition
A measurement of any amphetamine class drug present in a biological specimen.
NCI Preferred Term
Amphetamine Drug Class Measurement
xxTEST_J
アンフェタミン
CDISC Synonym(s)_J
アンフェタミン
CDISC Definition_J
生物学的標本中に存在するアンフェタミン類の薬物の測定。
NCI Preferred Term_J
アンフェタミン薬物クラスの測定

Domain
LB
Code
C102262
xxTESTCD
AMPHETD
xxTEST
Dextroamphetamine
CDISC Synonym(s)
d-amphetamine; Dextroamphetamine
CDISC Definition
A measurement of the dextroamphetamine in a biological specimen.
NCI Preferred Term
Dextroamphetamine Measurement
xxTEST_J
デキストロアンフェタミン
CDISC Synonym(s)_J
d-アンフェタミン; デキストロアンフェタミン
CDISC Definition_J
生物学的標本中のデキストロアンフェタミンの測定。
NCI Preferred Term_J
デキストロアンフェタミン測定

Domain
PP
Code
C181513
xxTESTCD
AMSS
xxTEST
Amt of Analyte at Steady State
CDISC Synonym(s)
Amt of Analyte at Steady State
CDISC Definition
The amount of analyte in the body at steady state.
NCI Preferred Term
Amount of Analyte at Steady State
xxTEST_J
定常状態における分析対象物の量
CDISC Synonym(s)_J
定常状態における分析対象物の量
CDISC Definition_J
定常状態における体内の分析対象物の量。
NCI Preferred Term_J
定常状態における分析対象物の量

Domain
PP
Code
C181514
xxTESTCD
AMTT
xxTEST
Amt of Analyte at Time T
CDISC Synonym(s)
Amt of Analyte at Time T
CDISC Definition
The amount of analyte in the body at any time t.
NCI Preferred Term
Amount of Analyte at Time T
xxTEST_J
T時刻における分析対象物の量
CDISC Synonym(s)_J
T時刻における分析対象物の量
CDISC Definition_J
任意の時点 t における体内の分析対象物質の量。
NCI Preferred Term_J
時刻Tにおける分析対象物質の量

Domain
LB
Code
C64434
xxTESTCD
AMYLASE
xxTEST
Amylase
CDISC Synonym(s)
Amylase
CDISC Definition
A measurement of the total enzyme amylase in a biological specimen.
NCI Preferred Term
Amylase Measurement
xxTEST_J
アミラーゼ
CDISC Synonym(s)_J
アミラーゼ
CDISC Definition_J
生物標本中の総酵素アミラーゼの測定。
NCI Preferred Term_J
アミラーゼ測定

Domain
LB
Code
C111243
xxTESTCD
AMYLASEM
xxTEST
Macroamylase
CDISC Synonym(s)
Macroamylase
CDISC Definition
A measurement of macroamylase in a biological specimen.
NCI Preferred Term
Macroamylase Measurement
xxTEST_J
マクロアミラーゼ
CDISC Synonym(s)_J
マクロアミラーゼ
CDISC Definition_J
生物標本中のマクロアミラーゼの測定。
NCI Preferred Term_J
マクロアミラーゼ測定

Domain
LB
Code
C98767
xxTESTCD
AMYLASEP
xxTEST
Amylase, Pancreatic
CDISC Synonym(s)
Amylase, Pancreatic; Pancreatic Amylase Isoenzyme
CDISC Definition
A measurement of the pancreatic enzyme amylase in a biological specimen.
NCI Preferred Term
Pancreatic Amylase Measurement
xxTEST_J
膵臓アミラーゼ
CDISC Synonym(s)_J
膵アミラーゼ；膵アミラーゼアイソザイム
CDISC Definition_J
生物標本中の膵臓酵素アミラーゼの測定。
NCI Preferred Term_J
膵アミラーゼ測定

Domain
LB
Code
C98780
xxTESTCD
AMYLASES
xxTEST
Amylase, Salivary
CDISC Synonym(s)
Amylase, Salivary; Salivary Amylase Isoenzyme
CDISC Definition
A measurement of the salivary enzyme amylase in a biological specimen.
NCI Preferred Term
Salivary Amylase Measurement
xxTEST_J
唾液アミラーゼ
CDISC Synonym(s)_J
唾液アミラーゼ；唾液アミラーゼアイソザイム
CDISC Definition_J
生物標本中の唾液酵素アミラーゼの測定。
NCI Preferred Term_J
唾液アミラーゼ測定

Domain
LB
Code
C103352
xxTESTCD
AMYLB38
xxTEST
Amyloid Beta 1-38
CDISC Synonym(s)
Amyloid Beta 1-38; Amyloid Beta 38; Amyloid Beta 38 Protein
CDISC Definition
A measurement of amyloid beta protein which is composed of peptides 1 to 38 in a biological specimen.
NCI Preferred Term
Amyloid Beta 1-38 Measurement
xxTEST_J
アミロイドβ1-38
CDISC Synonym(s)_J
アミロイドβ1-38; アミロイドβ38; アミロイドβ38タンパク質
CDISC Definition_J
生物標本中のペプチド 1 ～ 38 で構成されるアミロイド ベータ タンパク質の測定。
NCI Preferred Term_J
アミロイドβ1-38測定

Domain
LB
Code
C103353
xxTESTCD
AMYLB40
xxTEST
Amyloid Beta 1-40
CDISC Synonym(s)
Amyloid Beta 1-40; Amyloid Beta 40; Amyloid Beta 40 Protein
CDISC Definition
A measurement of amyloid beta protein which is composed of peptides 1 to 40 in a biological specimen.
NCI Preferred Term
Amyloid Beta 1-40 Measurement
xxTEST_J
アミロイドβ1-40
CDISC Synonym(s)_J
アミロイドβ1-40; アミロイドβ40; アミロイドβ40タンパク質
CDISC Definition_J
生物標本中のペプチド 1 ～ 40 で構成されるアミロイド ベータ タンパク質の測定。
NCI Preferred Term_J
アミロイドβ1-40測定

Domain
LB
Code
C184518
xxTESTCD
AMYLB41
xxTEST
Amyloid Beta 1-41
CDISC Synonym(s)
Amyloid Beta 1-41; Amyloid Beta 41; Amyloid Beta 41 Protein
CDISC Definition
A measurement of amyloid beta protein which is composed of peptides 1 to 41 in a biological specimen.
NCI Preferred Term
Amyloid Beta 1-41 Measurement
xxTEST_J
アミロイドβ1-41
CDISC Synonym(s)_J
アミロイドβ1-41; アミロイドβ41; アミロイドβ41タンパク質
CDISC Definition_J
生物標本中のペプチド 1 ～ 41 で構成されるアミロイド ベータ タンパク質の測定。
NCI Preferred Term_J
アミロイドβ1-41測定

Domain
LB
Code
C84809
xxTESTCD
AMYLB42
xxTEST
Amyloid Beta 1-42
CDISC Synonym(s)
Amyloid Beta 1-42; Amyloid Beta 42; Amyloid Beta 42 Protein
CDISC Definition
A measurement of amyloid beta protein which is composed of peptides 1 to 42 in a biological specimen.
NCI Preferred Term
Beta Amyloid 42 Measurement
xxTEST_J
アミロイドβ1-42
CDISC Synonym(s)_J
アミロイドβ1-42; アミロイドβ42; アミロイドβ42タンパク質
CDISC Definition_J
生物標本中のペプチド 1 ～ 42 で構成されるアミロイド ベータ タンパク質の測定。
NCI Preferred Term_J
ベータアミロイド42測定

Domain
LB
Code
C125940
xxTESTCD
AMYLOIDA
xxTEST
Amyloid A
CDISC Synonym(s)
Amyloid A
CDISC Definition
A measurement of the total amyloid A in a biological specimen.
NCI Preferred Term
Amyloid A Measurement
xxTEST_J
アミロイドA
CDISC Synonym(s)_J
アミロイドA
CDISC Definition_J
生物標本中のアミロイド A の総量の測定。
NCI Preferred Term_J
アミロイドA測定

Domain
LB
Code
C81999
xxTESTCD
AMYLOIDB
xxTEST
Amyloid, Beta
CDISC Synonym(s)
Amyloid, Beta; Beta Amyloid
CDISC Definition
A measurement of the total amyloid beta in a biological specimen.
NCI Preferred Term
Beta Amyloid Measurement
xxTEST_J
アミロイドβ
CDISC Synonym(s)_J
アミロイドβ; βアミロイド
CDISC Definition_J
生物標本中の総アミロイドβの測定。
NCI Preferred Term_J
ベータアミロイド測定

Domain
LB
Code
C81998
xxTESTCD
AMYLOIDP
xxTEST
Amyloid P
CDISC Synonym(s)
Amyloid P; Amyloid P Component; SAP; Serum Amyloid P Component
CDISC Definition
A measurement of the total amyloid P in a biological specimen.
NCI Preferred Term
Amyloid P Measurement
xxTEST_J
アミロイドP
CDISC Synonym(s)_J
アミロイドP; アミロイドP成分; SAP; 血清アミロイドP成分
CDISC Definition_J
生物標本中のアミロイドPの総量の測定。
NCI Preferred Term_J
アミロイドP測定

Domain
IS
Code
C176313
xxTESTCD
ANAB
xxTEST
Anti-Neutrophil Antibody
CDISC Synonym(s)
Anti-Neutrophil Antibody; Anti-Neutrophil Autoantibody
CDISC Definition
A measurement of the total anti-neutrophil antibody in a biological specimen.
NCI Preferred Term
Anti-Neutrophil Antibody Measurement
xxTEST_J
抗好中球抗体
CDISC Synonym(s)_J
抗好中球抗体；抗好中球自己抗体
CDISC Definition_J
生物学的標本中の総抗好中球抗体の測定。
NCI Preferred Term_J
抗好中球抗体測定

Domain
LB
Code
C147298
xxTESTCD
ANABASN
xxTEST
Anabasine
CDISC Synonym(s)
Anabasine
CDISC Definition
A measurement of the anabasine in a specimen.
NCI Preferred Term
Anabasine Measurement
xxTEST_J
アナバシン
CDISC Synonym(s)_J
アナバシン
CDISC Definition_J
標本中のアナバシンの測定。
NCI Preferred Term_J
アナバシン測定

Domain
LB
Code
C147299
xxTESTCD
ANAG
xxTEST
Alpha-N-acetylglucosaminidase
CDISC Synonym(s)
Alpha-N-acetylglucosaminidase
CDISC Definition
A measurement of the alpha-N-acetylglucosaminidase in a biological specimen.
NCI Preferred Term
Alpha-N-acetylglucosaminidase Measurement
xxTEST_J
α-N-アセチルグルコサミニダーゼ
CDISC Synonym(s)_J
α-N-アセチルグルコサミニダーゼ
CDISC Definition_J
生物標本中のα-N-アセチルグルコサミニダーゼの測定。
NCI Preferred Term_J
α-N-アセチルグルコサミニダーゼ測定

Domain
MB
Code
C187839
xxTESTCD
ANAPDNA
xxTEST
Anaplasma DNA
CDISC Synonym(s)
Anaplasma DNA
CDISC Definition
A measurement of the DNA from any member of the genus Anaplasma in a biological specimen.
NCI Preferred Term
Anaplasma DNA Measurement
xxTEST_J
アナプラズマDNA
CDISC Synonym(s)_J
アナプラズマDNA
CDISC Definition_J
生物標本中のアナプラズマ属の任意のメンバーの DNA の測定。
NCI Preferred Term_J
アナプラズマDNA測定

Domain
MB
Code
C187668
xxTESTCD
ANAPLASM
xxTEST
Anaplasma
CDISC Synonym(s)
Anaplasma
CDISC Definition
A measurement of the organisms that are not assigned to the species level but are assigned to the Anaplasma genus level in a biological specimen.
NCI Preferred Term
Anaplasma Measurement
xxTEST_J
アナプラズマ
CDISC Synonym(s)_J
アナプラズマ
CDISC Definition_J
生物標本において、種レベルには割り当てられていないが、アナプラズマ属レベルに割り当てられている生物の測定値。
NCI Preferred Term_J
アナプラズマ測定

Domain
MB
Code
C198302
xxTESTCD
ANARBACT
xxTEST
Anaerobic Bacteria
CDISC Synonym(s)
Anaerobic Bacteria
CDISC Definition
A measurement of the anaerobic bacteria in a biological specimen.
NCI Preferred Term
Anaerobic Bacteria Measurement
xxTEST_J
嫌気性細菌
CDISC Synonym(s)_J
嫌気性細菌
CDISC Definition_J
生物標本中の嫌気性細菌の測定。
NCI Preferred Term_J
嫌気性細菌の測定

Domain
RS
Code
C156564
xxTESTCD
ANATRESP
xxTEST
Anatomic Response
CDISC Synonym(s)
Anatomic Response
CDISC Definition
An assessment of the anatomic response (based on changes in size of anatomic structures) of the disease to the therapy.
NCI Preferred Term
Anatomic Response
xxTEST_J
解剖学的反応
CDISC Synonym(s)_J
解剖学的反応
CDISC Definition_J
治療法に対する疾患の解剖学的反応（解剖学的構造のサイズの変化に基づく）の評価。
NCI Preferred Term_J
解剖学的反応

Domain
IS
Code
C120626
xxTESTCD
ANCAB
xxTEST
Anti-Neutrophil Cytoplasmic Antibody
CDISC Synonym(s)
Anti-Neutrophil Cytoplasmic Antibody; Anti-Neutrophil Cytoplasmic Autoantibody
CDISC Definition
A measurement of the anti-neutrophil cytoplasmic antibody in a biological specimen.
NCI Preferred Term
Anti-Neutrophil Cytoplasmic Antibody Measurement
xxTEST_J
抗好中球細胞質抗体
CDISC Synonym(s)_J
抗好中球細胞質抗体；抗好中球細胞質自己抗体
CDISC Definition_J
生物学的標本中の抗好中球細胞質抗体の測定。
NCI Preferred Term_J
抗好中球細胞質抗体測定

Domain
IS
Code
C163420
xxTESTCD
ANCIGAB
xxTEST
Anti-Neutrophil Cytoplasmic IgG Antibody
CDISC Synonym(s)
Anti-Neutrophil Cytoplasmic IgG Antibody; Anti-Neutrophil Cytoplasmic IgG Autoantibody
CDISC Definition
A measurement of the anti-neutrophil cytoplasmic IgG antibody in a biological specimen.
NCI Preferred Term
Anti-Neutrophil Cytoplasmic IgG Antibody Measurement
xxTEST_J
抗好中球細胞質IgG抗体
CDISC Synonym(s)_J
抗好中球細胞質IgG抗体；抗好中球細胞質IgG自己抗体
CDISC Definition_J
生物学的標本中の抗好中球細胞質IgG抗体の測定。
NCI Preferred Term_J
抗好中球細胞質IgG抗体測定

Domain
LB
Code
C74842
xxTESTCD
ANDSTNDL
xxTEST
Androstenediol
CDISC Synonym(s)
Androstenediol
CDISC Definition
A measurement of the androstenediol metabolite in a biological specimen.
NCI Preferred Term
Androstenediol Metabolite Measurement
xxTEST_J
アンドロステンジオール
CDISC Synonym(s)_J
アンドロステンジオール
CDISC Definition_J
生物標本中のアンドロステンジオール代謝物の測定。
NCI Preferred Term_J
アンドロステンジオール代謝物測定

Domain
LB
Code
C74843
xxTESTCD
ANDSTNDN
xxTEST
Androstenedione
CDISC Synonym(s)
4-Androstenedione; Androstenedione
CDISC Definition
A measurement of the androstenedione hormone in a biological specimen.
NCI Preferred Term
Androstenedione Measurement
xxTEST_J
アンドロステンジオン
CDISC Synonym(s)_J
4-アンドロステンジオン; アンドロステンジオン
CDISC Definition_J
生物標本中のアンドロステンジオンホルモンの測定。
NCI Preferred Term_J
アンドロステンジオンの測定

Domain
LB
Code
C186026
xxTESTCD
ANDSTRN
xxTEST
Androsterone
CDISC Synonym(s)
Androsterone
CDISC Definition
A measurement of the androsterone in a biological specimen.
NCI Preferred Term
Androsterone Measurement
xxTEST_J
アンドロステロン
CDISC Synonym(s)_J
アンドロステロン
CDISC Definition_J
生物標本中のアンドロステロンの測定。
NCI Preferred Term_J
アンドロステロン測定

Domain
CV
Code
C139038
xxTESTCD
ANEURIND
xxTEST
Aneurysm Indicator
CDISC Synonym(s)
Aneurysm Indicator
CDISC Definition
An indication as to whether there is the presence of one or more aneurysms.
NCI Preferred Term
Aneurysm Indicator
xxTEST_J
動脈瘤インジケーター
CDISC Synonym(s)_J
動脈瘤インジケーター
CDISC Definition_J
1 つ以上の動脈瘤が存在するかどうかを示します。
NCI Preferred Term_J
動脈瘤インジケーター

Domain
LB
Code
C91372
xxTESTCD
ANGLBIND
xxTEST
Antiglobulin Test, Indirect
CDISC Synonym(s)
Antiglobulin Test, Indirect; Indirect Coombs Test
CDISC Definition
A test that uses Coombs' reagent to detect the presence of anti-erythrocyte antibodies in a biological specimen.
NCI Preferred Term
Indirect Antiglobulin Test
xxTEST_J
抗グロブリン試験、間接
CDISC Synonym(s)_J
間接抗グロブリン試験；間接クームス試験
CDISC Definition_J
クームス試薬を使用して生物学的標本中の抗赤血球抗体の存在を検出する検査。
NCI Preferred Term_J
間接抗グロブリン試験

Domain
LB
Code
C81974
xxTESTCD
ANGLOBDR
xxTEST
Antiglobulin Test, Direct
CDISC Synonym(s)
Antiglobulin Test Polyspecific, Direct; Antiglobulin Test, Direct; Direct Coombs Test
CDISC Definition
A measurement of the antibody or complement-coated erythrocytes in a biological specimen in vivo.
NCI Preferred Term
Direct Antiglobulin Test
xxTEST_J
抗グロブリン検査、直接
CDISC Synonym(s)_J
多特異性抗グロブリン試験、直接抗グロブリン試験、直接クームス試験
CDISC Definition_J
生体内の生物学的標本内の抗体または補体で覆われた赤血球の測定。
NCI Preferred Term_J
直接抗グロブリン試験

Domain
LB
Code
C111128
xxTESTCD
ANGPT1
xxTEST
Angiopoietin 1
CDISC Synonym(s)
Angiopoietin 1
CDISC Definition
A measurement of angiopoietin 1 in a biological specimen.
NCI Preferred Term
Angiopoietin 1 Measurement
xxTEST_J
アンジオポエチン1
CDISC Synonym(s)_J
アンジオポエチン1
CDISC Definition_J
生物標本中のアンジオポエチン 1 の測定。
NCI Preferred Term_J
アンジオポエチン1測定

Domain
LB
Code
C163421
xxTESTCD
ANGPT2
xxTEST
Angiopoietin 2
CDISC Synonym(s)
ANG2; Angiopoietin 2
CDISC Definition
A measurement of angiopoietin 2 in a biological specimen.
NCI Preferred Term
Angiopoietin 2 Measurement
xxTEST_J
アンジオポエチン2
CDISC Synonym(s)_J
ANG2; アンジオポエチン2
CDISC Definition_J
生物標本中のアンジオポエチン 2 の測定。
NCI Preferred Term_J
アンジオポエチン2測定

Domain
LB
Code
C199911
xxTESTCD
ANGPTL4
xxTEST
Angiopoietin-Related Protein 4
CDISC Synonym(s)
Angiopoietin-Like 4; Angiopoietin-Related Protein 4; ARP4; FIAF; Hepatic Angiopoietin-Related Protein; HFARP; PGAR
CDISC Definition
A measurement of the angiopoietin-related protein 4 in a biological specimen.
NCI Preferred Term
Angiopoietin-Related Protein 4 Measurement
xxTEST_J
アンジオポエチン関連タンパク質4
CDISC Synonym(s)_J
アンジオポエチン様4; アンジオポエチン関連タンパク質4; ARP4; FIAF; 肝アンジオポエチン関連タンパク質; HFARP; PGAR
CDISC Definition_J
生物標本中のアンジオポエチン関連タンパク質 4 の測定。
NCI Preferred Term_J
アンジオポエチン関連タンパク質4の測定

Domain
LB
Code
C74844
xxTESTCD
ANGTNS1
xxTEST
Angiotensin I
CDISC Synonym(s)
Angiotensin I
CDISC Definition
A measurement of the angiotensin I hormone in a biological specimen.
NCI Preferred Term
Angiotensin I Measurement
xxTEST_J
アンジオテンシンI
CDISC Synonym(s)_J
アンジオテンシンI
CDISC Definition_J
生物標本中のアンジオテンシン I ホルモンの測定。
NCI Preferred Term_J
アンジオテンシンI測定

Domain
LB
Code
C74845
xxTESTCD
ANGTNS2
xxTEST
Angiotensin II
CDISC Synonym(s)
Angiotensin II
CDISC Definition
A measurement of the angiotensin II hormone in a biological specimen.
NCI Preferred Term
Angiotensin II Measurement
xxTEST_J
アンジオテンシンII
CDISC Synonym(s)_J
アンジオテンシンII
CDISC Definition_J
生物標本中のアンジオテンシン II ホルモンの測定。
NCI Preferred Term_J
アンジオテンシンII測定

Domain
LB
Code
C74846
xxTESTCD
ANGTNSGN
xxTEST
Angiotensinogen
CDISC Synonym(s)
Angiotensin Precursor; Angiotensinogen
CDISC Definition
A measurement of the angiotensinogen hormone in a biological specimen.
NCI Preferred Term
Angiotensinogen Measurement
xxTEST_J
アンジオテンシノーゲン
CDISC Synonym(s)_J
アンジオテンシン前駆体; アンジオテンシノーゲン
CDISC Definition_J
生物標本中のアンジオテンシノーゲンホルモンの測定。
NCI Preferred Term_J
アンジオテンシノーゲン測定

Domain
MB
Code
C187841
xxTESTCD
ANI
xxTEST
Aspergillus niger
CDISC Synonym(s)
Aspergillus niger
CDISC Definition
A measurement of the Aspergillus niger in a biological specimen.
NCI Preferred Term
Aspergillus niger Measurement
xxTEST_J
アスペルギルス・ニガー
CDISC Synonym(s)_J
アスペルギルス・ニガー
CDISC Definition_J
生物標本中の Aspergillus niger の測定。
NCI Preferred Term_J
アスペルギルス・ニガー測定

Domain
LB
Code
C74685
xxTESTCD
ANIONG
xxTEST
Anion Gap
CDISC Synonym(s)
Anion Gap
CDISC Definition
A computed estimate of the unmeasured anions (those other than the chloride and bicarbonate anions) in a biological specimen.
NCI Preferred Term
Anion Gap Measurement
xxTEST_J
アニオンギャップ
CDISC Synonym(s)_J
アニオンギャップ
CDISC Definition_J
生物標本中の測定されていない陰イオン（塩化物陰イオンと重炭酸塩陰イオン以外の陰イオン）の計算による推定値。
NCI Preferred Term_J
アニオンギャップ測定

Domain
LB
Code
C147303
xxTESTCD
ANIONG3
xxTEST
Anion Gap 3
CDISC Synonym(s)
Anion Gap 3
CDISC Definition
A computed estimate of the unmeasured anions (computed as sodium minus the chloride and bicarbonate) in a biological specimen.
NCI Preferred Term
Anion Gap 3 Measurement
xxTEST_J
アニオンギャップ3
CDISC Synonym(s)_J
アニオンギャップ3
CDISC Definition_J
生物標本中の測定されていない陰イオン（ナトリウムから塩化物と重炭酸塩を差し引いて計算）の計算による推定値。
NCI Preferred Term_J
アニオンギャップ3測定

Domain
LB
Code
C147304
xxTESTCD
ANIONG4
xxTEST
Anion Gap 4
CDISC Synonym(s)
Anion Gap 4
CDISC Definition
A computed estimate of the unmeasured anions (computed as the difference between the sum of serum sodium + serum potassium and the sum of the serum bicarbonate+ chloride) in a biological specimen.
NCI Preferred Term
Anion Gap 4 Measurement
xxTEST_J
アニオンギャップ4
CDISC Synonym(s)_J
アニオンギャップ4
CDISC Definition_J
生物学的標本中の測定されていない陰イオンの計算された推定値（血清ナトリウム + 血清カリウムの合計と血清重炭酸塩 + 塩化物の合計の差として計算されます）。
NCI Preferred Term_J
アニオンギャップ4測定

Domain
LB
Code
C74797
xxTESTCD
ANISO
xxTEST
Anisocytes
CDISC Synonym(s)
Anisocytes; Anisocytosis
CDISC Definition
A measurement of the variability in the size of the red blood cells in a whole blood specimen.
NCI Preferred Term
Anisocyte Measurement
xxTEST_J
異形細胞
CDISC Synonym(s)_J
不等赤血球
CDISC Definition_J
全血標本中の赤血球の大きさの変動の測定値。
NCI Preferred Term_J
異方性細胞測定

Domain
LB
Code
C161354
xxTESTCD
ANISOCHR
xxTEST
Anisochromia
CDISC Synonym(s)
Anisochromia
CDISC Definition
A measurement of the color variation of erythrocytes in a biological specimen.
NCI Preferred Term
Anisochromia Measurement
xxTEST_J
両眼不同色症
CDISC Synonym(s)_J
両眼不同色症
CDISC Definition_J
生物標本中の赤血球の色の変化の測定。
NCI Preferred Term_J
色覚異常測定

Domain
LB
Code
C184568
xxTESTCD
ANLRDN
xxTEST
Anileridine
CDISC Synonym(s)
Anileridine
CDISC Definition
A measurement of the anileridine in a biological specimen.
NCI Preferred Term
Anileridine Measurement
xxTEST_J
アニレリジン
CDISC Synonym(s)_J
アニレリジン
CDISC Definition_J
生物標本中のアニレリジンの測定。
NCI Preferred Term_J
アニレリジン測定

Domain
CV
Code
C127535
xxTESTCD
ANNAVEL
xxTEST
Annular a' Velocity
CDISC Synonym(s)
Annular a' Velocity
CDISC Definition
The peak velocity of the annular motion during late ventricular diastole (the active filling of the ventricle).
NCI Preferred Term
Annular a' Velocity
xxTEST_J
環状a'速度
CDISC Synonym(s)_J
環状a'速度
CDISC Definition_J
心室拡張後期（心室の能動充満）における環状運動の最高速度。
NCI Preferred Term_J
環状a'速度

Domain
CV
Code
C127536
xxTESTCD
ANNEVEL
xxTEST
Annular e' Velocity
CDISC Synonym(s)
Annular e' Velocity
CDISC Definition
The peak velocity of the annular motion during early ventricular diastole (the passive filling of the ventricle).
NCI Preferred Term
Annular e' Velocity
xxTEST_J
環状e'速度
CDISC Synonym(s)_J
環状e'速度
CDISC Definition_J
心室拡張初期（心室の受動的な充満）中の環状運動のピーク速度。
NCI Preferred Term_J
環状e'速度

Domain
CV
Code
C139045
xxTESTCD
ANNSVEL
xxTEST
Annular S' Velocity
CDISC Synonym(s)
Annular S' Velocity
CDISC Definition
The peak velocity of the annular motion during ventricular systole.
NCI Preferred Term
Annular S' Velocity
xxTEST_J
環状S'速度
CDISC Synonym(s)_J
環状S'速度
CDISC Definition_J
心室収縮期における環状運動のピーク速度。
NCI Preferred Term_J
環状S'速度

Domain
LB
Code
C74886
xxTESTCD
ANP
xxTEST
Atrial Natriuretic Peptide
CDISC Synonym(s)
Atrial Natriuretic Peptide; Atriopeptin
CDISC Definition
A measurement of the atrial natriuretic peptide in a biological specimen.
NCI Preferred Term
Atrial Natriuretic Peptide Measurement
xxTEST_J
心房性ナトリウム利尿ペプチド
CDISC Synonym(s)_J
心房性ナトリウム利尿ペプチド; アトリオペプチン
CDISC Definition_J
生物学的標本中の心房性ナトリウム利尿ペプチドの測定。
NCI Preferred Term_J
心房性ナトリウム利尿ペプチド測定

Domain
LB
Code
C172523
xxTESTCD
ANPPROMR
xxTEST
Mid-Reg Pro-Atrial Natriuretic Peptide
CDISC Synonym(s)
Mid-Reg Pro-Atrial Natriuretic Peptide; Mid-Regional Pro-Atrial Natriuretic Peptide; MR-proANP; MRproANP
CDISC Definition
A measurement of the mid-regional pro-atrial natriuretic peptide in a biological specimen.
NCI Preferred Term
Mid-Regional Pro-Atrial Natriuretic Peptide Measurement
xxTEST_J
中等度プロ心房性ナトリウム利尿ペプチド
CDISC Synonym(s)_J
中域プロ心房性ナトリウム利尿ペプチド; 中域プロ心房性ナトリウム利尿ペプチド; MR-proANP; MRproANP
CDISC Definition_J
生物学的標本中の中部領域プロ心房性ナトリウム利尿ペプチドの測定。
NCI Preferred Term_J
中部領域プロ心房性ナトリウム利尿ペプチド測定

Domain
LB
Code
C139088
xxTESTCD
ANPPRONT
xxTEST
N-Terminal ProA-type Natriuretic Peptide
CDISC Synonym(s)
N-terminal pro-Atrial Natriuretic Peptide; N-Terminal ProA-type Natriuretic Peptide; NT proANP II
CDISC Definition
A measurement of the N-terminal proA-type natriuretic peptide in a biological specimen.
NCI Preferred Term
N-Terminal ProA-type Natriuretic Peptide Measurement
xxTEST_J
N末端プロA型ナトリウム利尿ペプチド
CDISC Synonym(s)_J
N末端プロ心房性ナトリウム利尿ペプチド；N末端プロA型ナトリウム利尿ペプチド；NTプロANP II
CDISC Definition_J
生物標本中の N 末端プロ A 型ナトリウム利尿ペプチドの測定。
NCI Preferred Term_J
N末端プロA型ナトリウム利尿ペプチド測定

Domain
LB
Code
C81958
xxTESTCD
ANTHRMA
xxTEST
Antithrombin Activity
CDISC Synonym(s)
Antithrombin Activity; Antithrombin III Activity
CDISC Definition
A measurement of the antithrombin activity in a biological specimen.
NCI Preferred Term
Antithrombin Activity Measurement
xxTEST_J
アンチトロンビン活性
CDISC Synonym(s)_J
アンチトロンビン活性; アンチトロンビンIII活性
CDISC Definition_J
生物学的標本中のアンチトロンビン活性の測定。
NCI Preferred Term_J
アンチトロンビン活性測定

Domain
LB
Code
C81977
xxTESTCD
ANTHRMAG
xxTEST
Antithrombin Antigen
CDISC Synonym(s)
Antithrombin; Antithrombin Antigen; Antithrombin III; Antithrombin III Antigen
CDISC Definition
A measurement of the antithrombin antigen in a biological specimen.
NCI Preferred Term
Antithrombin Antigen Measurement
xxTEST_J
アンチトロンビン抗原
CDISC Synonym(s)_J
アンチトロンビン; アンチトロンビン抗原; アンチトロンビンIII; アンチトロンビンIII抗原
CDISC Definition_J
生物学的標本中のアンチトロンビン抗原の測定。
NCI Preferred Term_J
アンチトロンビン抗原測定

Domain
LB
Code
C74691
xxTESTCD
ANTIDPRS
xxTEST
Antidepressants
CDISC Synonym(s)
Antidepressants
CDISC Definition
A measurement of any antidepressant class drug present in a biological specimen.
NCI Preferred Term
Antidepressant Measurement
xxTEST_J
抗うつ薬
CDISC Synonym(s)_J
抗うつ薬
CDISC Definition_J
生物学的標本中に存在する抗うつ薬クラスの薬物の測定。
NCI Preferred Term_J
抗うつ薬の測定

Domain
LB
Code
C172525
xxTESTCD
APAPCYS
xxTEST
Acetaminophen-Cysteine Adduct
CDISC Synonym(s)
Acetaminophen Protein Adduct; Acetaminophen-Cysteine Adduct; APAP-CYS; APAP-Protein
CDISC Definition
A measurement of the acetaminophen-cysteine adducts in a biological specimen.
NCI Preferred Term
Acetaminophen-Cysteine Adduct Measurement
xxTEST_J
アセトアミノフェン-システイン付加物
CDISC Synonym(s)_J
アセトアミノフェンタンパク質付加物; アセトアミノフェンシステイン付加物; APAP-CYS; APAP-タンパク質
CDISC Definition_J
生物標本中のアセトアミノフェン-システイン付加物の測定。
NCI Preferred Term_J
アセトアミノフェン-システイン付加物の測定

Domain
LB
Code
C221553
xxTESTCD
APAPGLC
xxTEST
Acetaminophen-Glucuronide Adduct
CDISC Synonym(s)
Acetaminophen-Glucuronide Adduct
CDISC Definition
A measurement of the acetaminophen-glucuronide adducts in a biological specimen.
NCI Preferred Term
Acetaminophen-Glucuronide Adduct Measurement
xxTEST_J
アセトアミノフェン-グルクロン酸付加物
CDISC Synonym(s)_J
アセトアミノフェン-グルクロン酸付加物
CDISC Definition_J
生物標本中のアセトアミノフェン-グルクロニド付加物の測定。
NCI Preferred Term_J
アセトアミノフェン-グルクロン酸抱合体測定

Domain
LB
Code
C221552
xxTESTCD
APAPSULF
xxTEST
Acetaminophen-Sulfate Adduct
CDISC Synonym(s)
Acetaminophen-Sulfate Adduct
CDISC Definition
A measurement of the acetaminophen-sulfate adducts in a biological specimen.
NCI Preferred Term
Acetaminophen-Sulfate Adduct Measurement
xxTEST_J
アセトアミノフェン硫酸塩付加物
CDISC Synonym(s)_J
アセトアミノフェン硫酸塩付加物
CDISC Definition_J
生物標本中のアセトアミノフェン硫酸付加物の測定。
NCI Preferred Term_J
アセトアミノフェン硫酸塩付加物の測定

Domain
MB
Code
C221594
xxTESTCD
API
xxTEST
Acinetobacter pittii
CDISC Synonym(s)
Acinetobacter pittii
CDISC Definition
A measurement of Acinetobacter pittii in a biological specimen.
NCI Preferred Term
Acinetobacter pittii Measurement
xxTEST_J
アシネトバクター・ピッティ
CDISC Synonym(s)_J
アシネトバクター・ピッティ
CDISC Definition_J
生物標本中の Acinetobacter pittii の測定。
NCI Preferred Term_J
アシネトバクター・ピッティ測定

Domain
LB
Code
C161372
xxTESTCD
APLASCPD
xxTEST
APTT-LA Screen to Confirm Pct Difference
CDISC Synonym(s)
APTT-LA Screen to Confirm Percent Difference; PTT-LA Screen to Confirm Pct Difference
CDISC Definition
A measurement to confirm the presence of Lupus anticoagulants, calculated as [(Screen aPTT - Confirm aPTT)/Screen aPTT]x100.
NCI Preferred Term
APTT-LA Screen to Confirm Percent Difference
xxTEST_J
APTT-LAスクリーニングによる％差異の確認
CDISC Synonym(s)_J
APTT-LAスクリーンによるパーセント差の確認; PTT-LAスクリーンによるパーセント差の確認
CDISC Definition_J
ループス抗凝固因子の存在を確認するための測定値で、[(スクリーニング aPTT - 確認 aPTT)/スクリーニング aPTT]x100 として計算されます。
NCI Preferred Term_J
APTT-LAスクリーニングによるパーセント差の確認

Domain
LB
Code
C103351
xxTESTCD
APLSMA2
xxTEST
Alpha-2 Antiplasmin
CDISC Synonym(s)
Alpha-2 Antiplasmin; Alpha-2 Plasmin Inhibitor
CDISC Definition
A measurement of the alpha-2 antiplasmin in a biological specimen.
NCI Preferred Term
Alpha-2 Antiplasmin Measurement
xxTEST_J
アルファ2抗プラスミン
CDISC Synonym(s)_J
アルファ2抗プラスミン剤；アルファ2プラスミン阻害剤
CDISC Definition_J
生物標本中のアルファ 2 抗プラスミンの測定。
NCI Preferred Term_J
アルファ2抗プラスミン測定

Domain
LB
Code
C122094
xxTESTCD
APLSMA2A
xxTEST
Alpha-2 Antiplasmin Activity
CDISC Synonym(s)
Alpha-2 Antiplasmin Activity
CDISC Definition
A measurement of the alpha-2 antiplasmin activity in a biological specimen.
NCI Preferred Term
Alpha-2 Antiplasmin Activity Measurement
xxTEST_J
アルファ2抗プラスミン活性
CDISC Synonym(s)_J
アルファ2抗プラスミン活性
CDISC Definition_J
生物標本中のアルファ 2 抗プラスミン活性の測定。
NCI Preferred Term_J
アルファ2抗プラスミン活性測定

Domain
LB
Code
C124337
xxTESTCD
APOA
xxTEST
Apolipoprotein A
CDISC Synonym(s)
Apolipoprotein A
CDISC Definition
A measurement of the total apolipoprotein A in a biological specimen.
NCI Preferred Term
Apolipoprotein A Measurement
xxTEST_J
アポリポタンパク質A
CDISC Synonym(s)_J
アポリポタンパク質A
CDISC Definition_J
生物標本中の総アポリポタンパク質 A の測定。
NCI Preferred Term_J
アポリポタンパク質A測定

Domain
LB
Code
C74733
xxTESTCD
APOA1
xxTEST
Apolipoprotein A1
CDISC Synonym(s)
Apolipoprotein A1
CDISC Definition
A measurement of the apolipoprotein A1 in a biological specimen.
NCI Preferred Term
Apolipoprotein A1 Measurement
xxTEST_J
アポリポタンパク質A1
CDISC Synonym(s)_J
アポリポタンパク質A1
CDISC Definition_J
生物標本中のアポリポタンパク質 A1 の測定。
NCI Preferred Term_J
アポリポタンパク質A1測定

Domain
LB
Code
C82000
xxTESTCD
APOA2
xxTEST
Apolipoprotein AII
CDISC Synonym(s)
Apolipoprotein AII
CDISC Definition
A measurement of the apolipoprotein AII in a biological specimen.
NCI Preferred Term
Apolipoprotein AII Measurement
xxTEST_J
アポリポタンパク質AII
CDISC Synonym(s)_J
アポリポタンパク質AII
CDISC Definition_J
生物標本中のアポリポタンパク質 AII の測定。
NCI Preferred Term_J
アポリポタンパク質AII測定

Domain
LB
Code
C103354
xxTESTCD
APOA4
xxTEST
Apolipoprotein A4
CDISC Synonym(s)
Apolipoprotein A4
CDISC Definition
A measurement of the apolipoprotein A4 in a biological specimen.
NCI Preferred Term
Apolipoprotein A4 Measurement
xxTEST_J
アポリポタンパク質A4
CDISC Synonym(s)_J
アポリポタンパク質A4
CDISC Definition_J
生物標本中のアポリポタンパク質 A4 の測定。
NCI Preferred Term_J
アポリポタンパク質A4測定

Domain
LB
Code
C103355
xxTESTCD
APOA5
xxTEST
Apolipoprotein A5
CDISC Synonym(s)
Apolipoprotein A5
CDISC Definition
A measurement of the apolipoprotein A5 in a biological specimen.
NCI Preferred Term
Apolipoprotein A5 Measurement
xxTEST_J
アポリポタンパク質A5
CDISC Synonym(s)_J
アポリポタンパク質A5
CDISC Definition_J
生物標本中のアポリポタンパク質 A5 の測定。
NCI Preferred Term_J
アポリポタンパク質A5測定

Domain
LB
Code
C74734
xxTESTCD
APOB
xxTEST
Apolipoprotein B
CDISC Synonym(s)
Apolipoprotein B
CDISC Definition
A measurement of the total apolipoprotein B in a biological specimen.
NCI Preferred Term
Apolipoprotein B Measurement
xxTEST_J
アポリポタンパク質B
CDISC Synonym(s)_J
アポリポタンパク質B
CDISC Definition_J
生物標本中の総アポリポタンパク質 B の測定。
NCI Preferred Term_J
アポリポタンパク質B測定

Domain
LB
Code
C120628
xxTESTCD
APOB100
xxTEST
Apolipoprotein B100
CDISC Synonym(s)
Apolipoprotein B100
CDISC Definition
A measurement of the apolipoprotein B100 in a biological specimen.
NCI Preferred Term
Apolipoprotein B100 Measurement
xxTEST_J
アポリポタンパク質B100
CDISC Synonym(s)_J
アポリポタンパク質B100
CDISC Definition_J
生物標本中のアポリポタンパク質 B100 の測定。
NCI Preferred Term_J
アポリポタンパク質B100測定

Domain
LB
Code
C120629
xxTESTCD
APOB48
xxTEST
Apolipoprotein B48
CDISC Synonym(s)
Apolipoprotein B48
CDISC Definition
A measurement of the apolipoprotein B48 in a biological specimen.
NCI Preferred Term
Apolipoprotein B48 Measurement
xxTEST_J
アポリポタンパク質B48
CDISC Synonym(s)_J
アポリポタンパク質B48
CDISC Definition_J
生物標本中のアポリポタンパク質 B48 の測定。
NCI Preferred Term_J
アポリポタンパク質B48測定

Domain
LB
Code
C103356
xxTESTCD
APOBAPA1
xxTEST
Apolipoprotein B/Apolipoprotein A1
CDISC Synonym(s)
Apolipoprotein B/Apolipoprotein A1
CDISC Definition
A relative measurement (ratio or percentage) of the Apolipoprotein B to Apolipoprotein A1 in a biological specimen.
NCI Preferred Term
Apolipoprotein B to Apolipoprotein A1 Ratio Measurement
xxTEST_J
アポリポタンパク質B/アポリポタンパク質A1
CDISC Synonym(s)_J
アポリポタンパク質B/アポリポタンパク質A1
CDISC Definition_J
生物標本中のアポリポタンパク質 B とアポリポタンパク質 A1 の相対的な測定値 (比率またはパーセンテージ)。
NCI Preferred Term_J
アポリポタンパク質Bとアポリポタンパク質A1の比測定

Domain
LB
Code
C120630
xxTESTCD
APOC1
xxTEST
Apolipoprotein CI
CDISC Synonym(s)
Apolipoprotein CI
CDISC Definition
A measurement of the apolipoprotein CI in a biological specimen.
NCI Preferred Term
Apolipoprotein CI Measurement
xxTEST_J
アポリポタンパク質CI
CDISC Synonym(s)_J
アポリポタンパク質CI
CDISC Definition_J
生物標本中のアポリポタンパク質 CI の測定。
NCI Preferred Term_J
アポリポタンパク質CI測定

Domain
LB
Code
C100427
xxTESTCD
APOC2
xxTEST
Apolipoprotein C2
CDISC Synonym(s)
Apolipoprotein C2; Apolipoprotein CII
CDISC Definition
A measurement of the apolipoprotein C2 in a biological specimen.
NCI Preferred Term
Apolipoprotein C2 Measurement
xxTEST_J
アポリポタンパク質C2
CDISC Synonym(s)_J
アポリポタンパク質C2; アポリポタンパク質CII
CDISC Definition_J
生物標本中のアポリポタンパク質 C2 の測定。
NCI Preferred Term_J
アポリポタンパク質C2測定

Domain
LB
Code
C82001
xxTESTCD
APOC3
xxTEST
Apolipoprotein CIII
CDISC Synonym(s)
Apolipoprotein CIII
CDISC Definition
A measurement of the apolipoprotein CIII in a biological specimen.
NCI Preferred Term
Apolipoprotein CIII Measurement
xxTEST_J
アポリポタンパク質CIII
CDISC Synonym(s)_J
アポリポタンパク質CIII
CDISC Definition_J
生物標本中のアポリポタンパク質 CIII の測定。
NCI Preferred Term_J
アポリポタンパク質CIII測定

Domain
MI
Code
C181495
xxTESTCD
APOCE
xxTEST
Apoptotic Cells
CDISC Synonym(s)
Apoptotic Cells
CDISC Definition
A measurement of the apoptotic cells in a biological specimen.
NCI Preferred Term
Apoptotic Cell Count
xxTEST_J
アポトーシス細胞
CDISC Synonym(s)_J
アポトーシス細胞
CDISC Definition_J
生物標本中のアポトーシス細胞の測定。
NCI Preferred Term_J
アポトーシス細胞数

Domain
MI
Code
C181494
xxTESTCD
APOCECE
xxTEST
Apoptotic Cells/Total Cells
CDISC Synonym(s)
Apoptotic Cells/Total Cells
CDISC Definition
A relative measurement (ratio or percentage) of the apoptotic cells to total cells in a biological specimen.
NCI Preferred Term
Apoptotic Cell to Total Cell Count
xxTEST_J
アポトーシス細胞数/総細胞数
CDISC Synonym(s)_J
アポトーシス細胞数/総細胞数
CDISC Definition_J
生物標本内の総細胞数に対するアポトーシス細胞の相対的な測定値（比率またはパーセンテージ）。
NCI Preferred Term_J
アポトーシス細胞と総細胞数

Domain
LB
Code
C198281
xxTESTCD
APOD
xxTEST
Apolipoprotein D
CDISC Synonym(s)
Apolipoprotein D
CDISC Definition
A measurement of the apolipoprotein D in a biological specimen.
NCI Preferred Term
Apolipoprotein D Measurement
xxTEST_J
アポリポタンパク質D
CDISC Synonym(s)_J
アポリポタンパク質D
CDISC Definition_J
生物標本中のアポリポタンパク質 D の測定。
NCI Preferred Term_J
アポリポタンパク質D測定

Domain
LB
Code
C82002
xxTESTCD
APOE
xxTEST
Apolipoprotein E
CDISC Synonym(s)
Apolipoprotein E
CDISC Definition
A measurement of the apolipoprotein E in a biological specimen.
NCI Preferred Term
Apolipoprotein E Measurement
xxTEST_J
アポリポタンパク質E
CDISC Synonym(s)_J
アポリポタンパク質E
CDISC Definition_J
生物標本中のアポリポタンパク質 E の測定。
NCI Preferred Term_J
アポリポタンパク質E測定

Domain
LB
Code
C92293
xxTESTCD
APOE4
xxTEST
Apolipoprotein E4
CDISC Synonym(s)
Apolipoprotein E4
CDISC Definition
A measurement of the apolipoprotein E4 in a biological specimen.
NCI Preferred Term
Apolipoprotein E4 Measurement
xxTEST_J
アポリポタンパク質E4
CDISC Synonym(s)_J
アポリポタンパク質E4
CDISC Definition_J
生物標本中のアポリポタンパク質 E4 の測定。
NCI Preferred Term_J
アポリポタンパク質E4測定

Domain
LB
Code
C82003
xxTESTCD
APOH
xxTEST
Apolipoprotein H
CDISC Synonym(s)
Apolipoprotein H
CDISC Definition
A measurement of the apolipoprotein H in a biological specimen.
NCI Preferred Term
Apolipoprotein H Measurement
xxTEST_J
アポリポタンパク質H
CDISC Synonym(s)_J
アポリポタンパク質H
CDISC Definition_J
生物標本中のアポリポタンパク質 H の測定。
NCI Preferred Term_J
アポリポタンパク質H測定

Domain
LB
Code
C100428
xxTESTCD
APOJ
xxTEST
Apolipoprotein J
CDISC Synonym(s)
Apolipoprotein J; Clusterin
CDISC Definition
A measurement of the apolipoprotein J in a biological specimen.
NCI Preferred Term
Apolipoprotein J Measurement
xxTEST_J
アポリポタンパク質J
CDISC Synonym(s)_J
アポリポタンパク質J; クラステリン
CDISC Definition_J
生物標本中のアポリポタンパク質 J の測定。
NCI Preferred Term_J
アポリポタンパク質J測定

Domain
LB
Code
C111130
xxTESTCD
APOJCRT
xxTEST
Apolipoprotein J/Creatinine
CDISC Synonym(s)
Apolipoprotein J/Creatinine; Clusterin/Creatinine
CDISC Definition
A relative measurement (ratio or percentage) of the apolipoprotein J to creatinine in a biological specimen.
NCI Preferred Term
Apolipoprotein J to Creatinine Ratio Measurement
xxTEST_J
アポリポタンパク質J/クレアチニン
CDISC Synonym(s)_J
アポリポタンパク質J/クレアチニン; クラステリン/クレアチニン
CDISC Definition_J
生物標本中のアポリポタンパク質 J とクレアチニンの相対的な測定値 (比率またはパーセンテージ)。
NCI Preferred Term_J
アポリポタンパク質Jとクレアチニンの比の測定

Domain
CV
Code
C139036
xxTESTCD
APOSCSEV
xxTEST
Aortic Postductal Coarctation Severity
CDISC Synonym(s)
Aortic Postductal Coarctation Severity
CDISC Definition
The assessment of the severity of postductal aortic coarctation.
NCI Preferred Term
Aortic Postductal Coarctation Severity
xxTEST_J
大動脈後管狭窄症の重症度
CDISC Synonym(s)_J
大動脈後管狭窄症の重症度
CDISC Definition_J
管後大動脈縮窄症の重症度の評価。
NCI Preferred Term_J
大動脈後管狭窄症の重症度

Domain
LB
Code
C119268
xxTESTCD
APPA
xxTEST
Amyloid Alpha Precursor Protein
CDISC Synonym(s)
Amyloid Alpha Precursor Protein
CDISC Definition
A measurement of the amyloid alpha precursor protein present in a biological specimen.
NCI Preferred Term
Amyloid Alpha Precursor Protein Measurement
xxTEST_J
アミロイドα前駆タンパク質
CDISC Synonym(s)_J
アミロイドα前駆タンパク質
CDISC Definition_J
生物学的標本中に存在するアミロイドα前駆体タンパク質の測定。
NCI Preferred Term_J
アミロイドα前駆体タンパク質の測定

Domain
LB
Code
C105438
xxTESTCD
APPB
xxTEST
Amyloid Beta Precursor Protein
CDISC Synonym(s)
Amyloid Beta Precursor; Amyloid Beta Precursor Protein; Amyloid Precursor Beta; Amyloid Precursor Protein
CDISC Definition
A measurement of the amyloid beta precursor protein present in a biological specimen.
NCI Preferred Term
Amyloid Beta Precursor Protein Measurement
xxTEST_J
アミロイドβ前駆タンパク質
CDISC Synonym(s)_J
アミロイドβ前駆体; アミロイドβ前駆体タンパク質; アミロイドβ前駆体; アミロイド前駆体タンパク質
CDISC Definition_J
生物学的標本中に存在するアミロイドβ前駆体タンパク質の測定。
NCI Preferred Term_J
アミロイドβ前駆体タンパク質の測定

Domain
LB
Code
C179695
xxTESTCD
APPEAR
xxTEST
Specimen Appearance
CDISC Synonym(s)
Specimen Appearance
CDISC Definition
The outward or visible aspect of a specimen.
NCI Preferred Term
Specimen Appearance Assessment
xxTEST_J
標本の外観
CDISC Synonym(s)_J
標本の外観
CDISC Definition_J
標本の外側または目に見える部分。
NCI Preferred Term_J
標本の外観評価

Domain
TS
Code
C204581
xxTESTCD
APPLCNT
xxTEST
Applicant
CDISC Synonym(s)
Applicant; Applicant Organization; Applicant Organization Name
CDISC Definition
Any party, which may include the tobacco manufacturer and its authorized representative, who is subject to FDA's jurisdiction under chapter IX of the FD&C Act and submits an application to FDA for authority to market a tobacco product. (After PMTA Rule 21
NCI Preferred Term
US FDA Tobacco Product Applicant
xxTEST_J
申請者
CDISC Synonym(s)_J
申請者; 申請組織; 申請組織名
CDISC Definition_J
FD&C法第IX章に基づきFDAの管轄権に服し、FDAにタバコ製品の販売許可を申請する当事者（タバコ製造業者およびその正式な代理人を含む）。（PMTA規則21以降）
NCI Preferred Term_J
米国FDAタバコ製品申請者

Domain
LB
Code
C119269
xxTESTCD
APPT
xxTEST
Total Amyloid Precursor Protein
CDISC Synonym(s)
Total Amyloid Precursor Protein
CDISC Definition
A measurement of the total amyloid precursor protein present in a biological specimen.
NCI Preferred Term
Total Amyloid Precursor Protein Measurement
xxTEST_J
総アミロイド前駆体タンパク質
CDISC Synonym(s)_J
総アミロイド前駆体タンパク質
CDISC Definition_J
生物学的標本中に存在するアミロイド前駆体タンパク質の総量の測定。
NCI Preferred Term_J
総アミロイド前駆体タンパク質測定

Domain
LB
Code
C184578
xxTESTCD
APRBRBTL
xxTEST
Aprobarbital
CDISC Synonym(s)
Aprobarbital
CDISC Definition
A measurement of the aprobarbital in a biological specimen.
NCI Preferred Term
Aprobarbital Measurement
xxTEST_J
アプロバルビタール
CDISC Synonym(s)_J
アプロバルビタール
CDISC Definition_J
生物標本中のアプロバルビタール濃度の測定。
NCI Preferred Term_J
アプロバルビタール測定

Domain
CV
Code
C139034
xxTESTCD
APRECSEV
xxTEST
Aortic Preductal Coarctation Severity
CDISC Synonym(s)
Aortic Preductal Coarctation Severity
CDISC Definition
The assessment of the severity of preductal aortic coarctation.
NCI Preferred Term
Aortic Preductal Coarctation Severity
xxTEST_J
大動脈管前狭窄症の重症度
CDISC Synonym(s)_J
大動脈管前狭窄症の重症度
CDISC Definition_J
動脈管前狭窄症の重症度の評価。
NCI Preferred Term_J
大動脈管前狭窄症の重症度

Domain
LB
Code
C156512
xxTESTCD
APRI
xxTEST
AST to Platelet Ratio Index
CDISC Synonym(s)
APRI Score; AST to Platelet Ratio Index
CDISC Definition
A calculation that indicates the likely presence of liver cirrhosis and fibrosis, measured as the relative measurement of aspartate aminotransferase (AST) to AST upper limit of normal, divided by the platelet count, and multiplied by 100.
NCI Preferred Term
Aspartate Aminotransferase to Platelet Ratio Index
xxTEST_J
AST対血小板比指数
CDISC Synonym(s)_J
APRIスコア; AST対血小板比指数
CDISC Definition_J
肝硬変および肝線維症が存在する可能性を示す計算で、アスパラギン酸アミノトランスフェラーゼ (AST) の正常上限に対する相対測定値として測定され、血小板数で割り、100 を掛けます。
NCI Preferred Term_J
アスパラギン酸アミノトランスフェラーゼ対血小板比指数

Domain
LB
Code
C111123
xxTESTCD
APRIL
xxTEST
A Proliferation-Inducing Ligand
CDISC Synonym(s)
A Proliferation-Inducing Ligand; Soluble CD256; TNFSF13; Tumor Necrosis Factor Ligand Superfamily Member 13
CDISC Definition
A measurement of the a proliferation-inducing ligand in a biological specimen.
NCI Preferred Term
A Proliferation-Inducing Ligand Measurement
xxTEST_J
増殖誘導リガンド
CDISC Synonym(s)_J
増殖誘導リガンド; 可溶性CD256; TNFSF13; 腫瘍壊死因子リガンドスーパーファミリーメンバー13
CDISC Definition_J
生物標本中の増殖誘導リガンドの測定。
NCI Preferred Term_J
増殖誘導リガンド測定

Domain
LB
Code
C100471
xxTESTCD
APROTCRS
xxTEST
Activated Protein C Resistance
CDISC Synonym(s)
Activated Protein C Resistance; Factor V Leiden Screen
CDISC Definition
A measurement of the resistance in the anticoagulation response to activated protein C in a biological specimen.
NCI Preferred Term
Activated Protein C Resistance Measurement
xxTEST_J
活性化プロテインC抵抗性
CDISC Synonym(s)_J
活性化プロテインC抵抗性；第V因子ライデンスクリーニング
CDISC Definition_J
生物標本中の活性化プロテイン C に対する抗凝固反応の抵抗の測定。
NCI Preferred Term_J
活性化プロテインC抵抗性測定

Domain
CV
Code
C139042
xxTESTCD
APSE
xxTEST
Annular Plane Systolic Excursion
CDISC Synonym(s)
Annular Plane Systolic Excursion
CDISC Definition
The longitudinal displacement of a cardiac valve annulus toward the apex of the heart.
NCI Preferred Term
Annular Plane Systolic Excursion
xxTEST_J
環状面収縮期移動
CDISC Synonym(s)_J
環状面収縮期移動
CDISC Definition_J
心臓の頂点に向かって心臓弁輪が縦方向に変位すること。
NCI Preferred Term_J
環状面収縮期移動

Domain
LB
Code
C209578
xxTESTCD
APSSCORE
xxTEST
Amyloid Probability Score
CDISC Synonym(s)
Amyloid Probability Score; APS; Plasma Amyloid Probability Score
CDISC Definition
A probability score representing the estimated likelihood that the patient is amyloid positive on PET imaging.
NCI Preferred Term
Amyloid Probability Score
xxTEST_J
アミロイド確率スコア
CDISC Synonym(s)_J
アミロイド確率スコア; APS; 血漿アミロイド確率スコア
CDISC Definition_J
PET 画像で患者がアミロイド陽性である可能性の推定値を表す確率スコア。
NCI Preferred Term_J
アミロイド確率スコア

Domain
LB
Code
C38462
xxTESTCD
APTT
xxTEST
Activated Partial Thromboplastin Time
CDISC Synonym(s)
Activated Partial Thromboplastin Time
CDISC Definition
A measurement of the length of time that it takes for clotting to occur when activating reagents are added to a biological specimen. The test is partial due to the absence of tissue factor (Factor III) from the reaction mixture.
NCI Preferred Term
Activated Partial Thromboplastin Time
xxTEST_J
活性化部分トロンボプラスチン時間
CDISC Synonym(s)_J
活性化部分トロンボプラスチン時間
CDISC Definition_J
活性化試薬を生体試料に加え、凝固が起こるまでの時間を測定する検査です。反応混合物に組織因子（第III因子）が含まれていないため、この検査は部分的なものです。
NCI Preferred Term_J
活性化部分トロンボプラスチン時間

Domain
LB
Code
C161369
xxTESTCD
APTTLAAC
xxTEST
APTT-LA Actual/Control
CDISC Synonym(s)
APTT-LA Actual/Control; Lupus Anticoagulant Sensitive APTT Actual/Control
CDISC Definition
A relative measurement (ratio or percentage) of the Lupus anticoagulant sensitive APTT in a subject's specimen when compared to a control specimen.
NCI Preferred Term
APTT-LA Actual to Control Ratio Measurement
xxTEST_J
APTT-LA 実測値/対照値
CDISC Synonym(s)_J
APTT-LA 実測値/対照値; ループス抗凝固薬感受性APTT 実測値/対照値
CDISC Definition_J
被験者の検体中のループス抗凝固剤感受性 APTT をコントロール検体と比較した相対的な測定値 (比率またはパーセンテージ)。
NCI Preferred Term_J
APTT-LA 実測値と対照値の比測定

Domain
LB
Code
C102277
xxTESTCD
APTTLAS
xxTEST
Lupus Anticoagulant Sensitive APTT
CDISC Synonym(s)
APTT-LA; APTTLA; Lupus Anticoagulant Sensitive APTT
CDISC Definition
A measurement of the length of time that it takes for clotting to occur when a lupus sensitive reagent is added to a plasma specimen.
NCI Preferred Term
Lupus Anticoagulant Sensitive APTT Measurement
xxTEST_J
ループス抗凝固剤感受性APTT
CDISC Synonym(s)_J
APTT-LA; APTTLA; ループス抗凝固剤感受性APTT
CDISC Definition_J
ループス感受性試薬を血漿標本に加えたときに凝固が起こるまでにかかる時間の長さを測定します。
NCI Preferred Term_J
ループス抗凝固薬感受性APTT測定

Domain
LB
Code
C98862
xxTESTCD
APTTSTND
xxTEST
Activated PTT/Standard
CDISC Synonym(s)
Activated Partial Thromboplastin Time/Standard Thromboplastin Time; Activated PTT/Standard; Activated PTT/Standard PTT
CDISC Definition
A relative measurement (ratio or percentage) of the subject's activated partial thromboplastin time to a standard or control partial thromboplastin time.
NCI Preferred Term
Activated PTT/Standard Ratio Measurement
xxTEST_J
アクティブ化されたPTT/標準
CDISC Synonym(s)_J
活性化部分トロンボプラスチン時間/標準トロンボプラスチン時間; 活性化PTT/標準; 活性化PTT/標準PTT
CDISC Definition_J
被験者の活性化部分トロンボプラスチン時間と標準部分トロンボプラスチン時間またはコントロール部分トロンボプラスチン時間に対する相対的な測定値 (比率またはパーセンテージ)。
NCI Preferred Term_J
アクティブPTT/標準比測定

Domain
LB
Code
C102259
xxTESTCD
ARA
xxTEST
Arachidonic Acid
CDISC Synonym(s)
Arachidonic Acid
CDISC Definition
A measurement of the arachidonic acid present in a biological specimen.
NCI Preferred Term
Arachidonic Acid Measurement
xxTEST_J
アラキドン酸
CDISC Synonym(s)_J
アラキドン酸
CDISC Definition_J
生物標本中に存在するアラキドン酸の測定。
NCI Preferred Term_J
アラキドン酸測定

Domain
IS
Code
C182150
xxTESTCD
ARAB
xxTEST
Allergen-induced Antibody
CDISC Synonym(s)
Allergen-induced Antibody
CDISC Definition
A measurement of the binding allergen-induced antibody in a biological specimen.
NCI Preferred Term
Allergen-induced Antibody Measurement
xxTEST_J
アレルゲン誘導抗体
CDISC Synonym(s)_J
アレルゲン誘導抗体
CDISC Definition_J
生物学的標本中のアレルゲン誘導結合抗体の測定。
NCI Preferred Term_J
アレルゲン誘発抗体測定

Domain
PP
Code
C102356
xxTESTCD
ARAUC
xxTEST
Accumulation Ratio AUCTAU
CDISC Synonym(s)
Accumulation Ratio AUCTAU
CDISC Definition
The area under the curve over the dosing interval at steady state divided by the area under the curve over the initial dosing interval.
NCI Preferred Term
Accumulation Ratio Area Under the Curve
xxTEST_J
累積比率 AUCTAU
CDISC Synonym(s)_J
累積比率 AUCTAU
CDISC Definition_J
定常状態での投与間隔にわたる曲線の下の面積を、初期投与間隔にわたる曲線の下の面積で割ったもの。
NCI Preferred Term_J
累積比率曲線下面積

Domain
PP
Code
C132435
xxTESTCD
ARAUCD
xxTEST
Accum Ratio AUCTAU norm by dose
CDISC Synonym(s)
Accum Ratio AUCTAU norm by dose
CDISC Definition
The area under the curve (AUCTAU) at steady state divided by the area under the curve (AUCTAU) over the initial dosing interval, each divided by the associated dose.
NCI Preferred Term
Accumulation Ratio AUC Over Dosing Interval Normalized by Dose
xxTEST_J
用量別の累積比 AUCTAU ノルム
CDISC Synonym(s)_J
用量別の累積比 AUCTAU ノルム
CDISC Definition_J
定常状態での曲線下面積 (AUCTAU) を初期投与間隔にわたる曲線下面積 (AUCTAU) で割り、さらにそれぞれを関連する投与量で割った値です。
NCI Preferred Term_J
投与間隔中のAUCの蓄積率（投与量で正規化）

Domain
PP
Code
C170611
xxTESTCD
ARAUCIFO
xxTEST
Accum Ratio AUC Infinity Obs
CDISC Synonym(s)
Accum Ratio AUC Infinity Obs
CDISC Definition
The area under the curve (AUC) extrapolated to infinity, calculated using the observed value of the last non-zero concentration divided by the area under the curve (AUC) extrapolated to infinity, calculated using the observed value of the last non-zero co
NCI Preferred Term
Accumulation Ratio AUC Infinity Observed
xxTEST_J
累積比AUC無限大観測
CDISC Synonym(s)_J
累積比AUC無限大観測
CDISC Definition_J
最後の非ゼロ濃度の観測値を使用して計算された無限大に外挿された曲線下面積（AUC）を、最後の非ゼロ濃度の観測値を使用して計算された無限大に外挿された曲線下面積（AUC）で割った値。
NCI Preferred Term_J
蓄積比AUC無限大観測

Domain
PP
Code
C170612
xxTESTCD
ARAUCIFP
xxTEST
Accum Ratio AUC Infinity Pred
CDISC Synonym(s)
Accum Ratio AUC Infinity Pred
CDISC Definition
The area under the curve (AUC) extrapolated to infinity, calculated using the predicted value of the last non-zero concentration divided by the area under the curve (AUC) extrapolated to infinity, calculated using the predicted value of the last non-zero
NCI Preferred Term
Accumulation Ratio AUC Infinity Predicted
xxTEST_J
累積比率AUC無限大予測
CDISC Synonym(s)_J
累積比率AUC無限大予測
CDISC Definition_J
最後の非ゼロ濃度の予測値を使用して計算された無限大に外挿された曲線下面積（AUC）を、最後の非ゼロ濃度の予測値を使用して計算された無限大に外挿された曲線下面積（AUC）で割ったもの
NCI Preferred Term_J
蓄積比AUC無限大予測

Domain
PP
Code
C132436
xxTESTCD
ARAUCIND
xxTEST
Accum Ratio AUC T1 to T2 norm by dose
CDISC Synonym(s)
Accum Ratio AUC T1 to T2 norm by dose
CDISC Definition
The area under the curve from T1 to T2 at steady state divided by the area under the curve from T1 to T2 during the initial dosing interval, each divided by the associated dose.
NCI Preferred Term
Accumulation Ratio AUC T1 to T2 Normalized by Dose
xxTEST_J
用量別の累積比率 AUC T1 対 T2 ノルム
CDISC Synonym(s)_J
用量別の累積比率 AUC T1 対 T2 ノルム
CDISC Definition_J
定常状態での T1 から T2 までの曲線の下の面積を、初期投与間隔中の T1 から T2 までの曲線の下の面積で割り、さらにそれぞれを関連する投与量で割った値です。
NCI Preferred Term_J
用量で正規化した蓄積比AUC T1対T2

Domain
PP
Code
C122329
xxTESTCD
ARAUCINT
xxTEST
Accumulation Ratio AUC from T1 to T2
CDISC Synonym(s)
Accumulation Ratio AUC from T1 to T2
CDISC Definition
The area under the curve from T1 to T2 at steady state divided by the area under the curve from T1 to T2 during the initial dosing interval.
NCI Preferred Term
Accumulation Ratio Area Under the Curve from T1 to T2
xxTEST_J
T1からT2までの蓄積率AUC
CDISC Synonym(s)_J
T1からT2までの蓄積率AUC
CDISC Definition_J
定常状態における T1 から T2 までの曲線の下の面積を、初期投与間隔中の T1 から T2 までの曲線の下の面積で割ったもの。
NCI Preferred Term_J
T1からT2までの曲線下面積の累積率

Domain
PP
Code
C170613
xxTESTCD
ARAUCIOD
xxTEST
Accum Ratio AUCIFO Norm by Dose
CDISC Synonym(s)
Accum Ratio AUCIFO Norm by Dose
CDISC Definition
The area under the curve (AUC) extrapolated to infinity, calculated using the observed value of the last non-zero concentration divided by the area under the curve (AUC) extrapolated to infinity, calculated using the observed value of the last non-zero co
NCI Preferred Term
Accumulation Ratio AUC Infinity Observed Normalized by Dose
xxTEST_J
用量別の累積比率 AUCIFO ノルム
CDISC Synonym(s)_J
用量別の累積比率 AUCIFO ノルム
CDISC Definition_J
最後の非ゼロ濃度の観測値を使用して計算された無限大に外挿された曲線下面積（AUC）を、最後の非ゼロ濃度の観測値を使用して計算された無限大に外挿された曲線下面積（AUC）で割った値。
NCI Preferred Term_J
蓄積比AUC無限大を用量で正規化した値

Domain
PP
Code
C170614
xxTESTCD
ARAUCIPD
xxTEST
Accum Ratio AUCIFP Norm by Dose
CDISC Synonym(s)
Accum Ratio AUCIFP Norm by Dose
CDISC Definition
The area under the curve (AUC) extrapolated to infinity, calculated using the predicted value of the last non-zero concentration divided by the area under the curve (AUC) extrapolated to infinity, calculated using the predicted value of the last non-zero
NCI Preferred Term
Accumulation Ratio AUC Infinity Predicted Normalized by Dose
xxTEST_J
用量別の累積比率 AUCIFP ノルム
CDISC Synonym(s)_J
用量別の累積比率 AUCIFP ノルム
CDISC Definition_J
最後の非ゼロ濃度の予測値を使用して計算された無限大に外挿された曲線下面積（AUC）を、最後の非ゼロ濃度の予測値を使用して計算された無限大に外挿された曲線下面積（AUC）で割ったもの
NCI Preferred Term_J
蓄積比AUC無限大予測（投与量で正規化）

Domain
PP
Code
C139129
xxTESTCD
ARAUCLST
xxTEST
Accum Ratio AUC to Last Nonzero Conc
CDISC Synonym(s)
Accum Ratio AUC to Last Nonzero Conc
CDISC Definition
The area under the curve (AUC) from the time of dosing to the last measurable concentration divided by the area under the curve from the time of dosing to the last measurable concentration during the initial dosing interval.
NCI Preferred Term
Accumulation Ratio AUC to Last Nonzero Concentration
xxTEST_J
最後の非ゼロ濃度に対する AUC の累積比率
CDISC Synonym(s)_J
最後の非ゼロ濃度に対する AUC の累積比率
CDISC Definition_J
投与時から最後の測定可能な濃度までの曲線下面積 (AUC) を、初期投与間隔中の投与時から最後の測定可能な濃度までの曲線下面積で割ったもの。
NCI Preferred Term_J
最後の非ゼロ濃度に対する蓄積比AUC

Domain
MI
Code
C178037
xxTESTCD
ARCHCHG
xxTEST
Architectural Changes
CDISC Synonym(s)
Architectural Changes
CDISC Definition
An evaluation of tissue architectural changes in a biological specimen.
NCI Preferred Term
Architectural Changes Assessment
xxTEST_J
アーキテクチャの変更
CDISC Synonym(s)_J
アーキテクチャの変更
CDISC Definition_J
生物標本における組織構造の変化の評価。
NCI Preferred Term_J
アーキテクチャ変更評価

Domain
PP
Code
C102357
xxTESTCD
ARCMAX
xxTEST
Accumulation Ratio Cmax
CDISC Synonym(s)
Accumulation Ratio Cmax
CDISC Definition
The maximum concentration at steady state divided by the maximum concentration during the initial dosing interval.
NCI Preferred Term
Accumulation Ratio Cmax
xxTEST_J
蓄積率Cmax
CDISC Synonym(s)_J
蓄積率Cmax
CDISC Definition_J
定常状態における最大濃度を初期投与間隔中の最大濃度で割ったもの。
NCI Preferred Term_J
蓄積率Cmax

Domain
PP
Code
C132437
xxTESTCD
ARCMAXD
xxTEST
Accum Ratio Cmax norm by dose
CDISC Synonym(s)
Accum Ratio Cmax norm by dose
CDISC Definition
The maximum concentration at steady state divided by the maximum concentration during the initial dosing interval, each divided by the associated dose.
NCI Preferred Term
Accumulation Ratio Cmax Normalized by Dose
xxTEST_J
用量別の累積比Cmax基準
CDISC Synonym(s)_J
用量別の累積比Cmax基準
CDISC Definition_J
定常状態における最大濃度を初期投与間隔中の最大濃度で割り、さらにそれぞれを関連する投与量で割った値。
NCI Preferred Term_J
用量で正規化した蓄積率Cmax

Domain
PP
Code
C102358
xxTESTCD
ARCMIN
xxTEST
Accumulation Ratio Cmin
CDISC Synonym(s)
Accumulation Ratio Cmin
CDISC Definition
The minimum concentration at steady state divided by the minimum concentration during the initial dosing interval.
NCI Preferred Term
Accumulation Ratio Cmin
xxTEST_J
蓄積率Cmin
CDISC Synonym(s)_J
蓄積率Cmin
CDISC Definition_J
定常状態における最小濃度を初期投与間隔中の最小濃度で割ったもの。
NCI Preferred Term_J
蓄積率Cmin

Domain
PP
Code
C132438
xxTESTCD
ARCMIND
xxTEST
Accum Ratio Cmin norm by dose
CDISC Synonym(s)
Accum Ratio Cmin norm by dose
CDISC Definition
The minimum concentration at steady state divided by the minimum concentration during the initial dosing interval, each divided by the associated dose.
NCI Preferred Term
Accumulation Ratio Cmin Normalized by Dose
xxTEST_J
投与量別の累積比Cmin基準
CDISC Synonym(s)_J
投与量別の累積比Cmin基準
CDISC Definition_J
定常状態での最小濃度を初期投与間隔中の最小濃度で割り、さらにそれぞれを関連する投与量で割った値。
NCI Preferred Term_J
線量で正規化した蓄積率Cmin

Domain
PP
Code
C132439
xxTESTCD
ARCTROUD
xxTEST
Accum Ratio Ctrough norm by dose
CDISC Synonym(s)
Accum Ratio Ctrough norm by dose
CDISC Definition
The trough concentration at steady state divided by the trough concentration during the initial dosing interval, each divided by the associated dose.
NCI Preferred Term
Accumulation Ratio Ctrough Normalized by Dose
xxTEST_J
累積比 線量別のトラフノルム
CDISC Synonym(s)_J
累積比 線量別のトラフノルム
CDISC Definition_J
定常状態でのトラフ濃度を初期投与間隔中のトラフ濃度で割り、さらに各トラフ濃度を関連する投与量で割った値。
NCI Preferred Term_J
線量で正規化した蓄積率Ctrough

Domain
PP
Code
C102426
xxTESTCD
ARCTROUG
xxTEST
Accumulation Ratio Ctrough
CDISC Synonym(s)
Accumulation Ratio Ctrough
CDISC Definition
The trough concentration at steady state divided by the trough concentration during the initial dosing interval.
NCI Preferred Term
Accumulation Ratio Ctrough
xxTEST_J
累積比率の最低値
CDISC Synonym(s)_J
累積比率の最低値
CDISC Definition_J
定常状態でのトラフ濃度を初期投与間隔中のトラフ濃度で割ったもの。
NCI Preferred Term_J
累積比率の最低値

Domain
TR
Code
C25244
xxTESTCD
AREA
xxTEST
Area
CDISC Synonym(s)
Area
CDISC Definition
The extent of a 2-dimensional surface enclosed within a boundary. (NCI)
NCI Preferred Term
Area
xxTEST_J
エリア
CDISC Synonym(s)_J
エリア
CDISC Definition_J
境界内に囲まれた 2 次元面の範囲。(NCI)
NCI Preferred Term_J
エリア

Domain
MI
Code
C25244
xxTESTCD
AREA
xxTEST
Area
CDISC Synonym(s)
Area
CDISC Definition
The extent of a 2-dimensional surface enclosed within a boundary. (NCI)
NCI Preferred Term
Area
xxTEST_J
エリア
CDISC Synonym(s)_J
エリア
CDISC Definition_J
境界内に囲まれた 2 次元面の範囲。(NCI)
NCI Preferred Term_J
エリア

Domain
MK
Code
C25244
xxTESTCD
AREA
xxTEST
Area
CDISC Synonym(s)
Area
CDISC Definition
The extent of a 2-dimensional surface enclosed within a boundary. (NCI)
NCI Preferred Term
Area
xxTEST_J
エリア
CDISC Synonym(s)_J
エリア
CDISC Definition_J
境界内に囲まれた 2 次元面の範囲。(NCI)
NCI Preferred Term_J
エリア

Domain
CV
Code
C127537
xxTESTCD
AREAEVD
xxTEST
Area, End Ventricular Diastole
CDISC Synonym(s)
Area, End Ventricular Diastole
CDISC Definition
The 2-dimensional surface enclosed within a boundary of a cardiovascular structure and measured at end ventricular diastole.
NCI Preferred Term
Area at End Ventricular Diastole
xxTEST_J
面積、心室拡張期終末部
CDISC Synonym(s)_J
面積、心室拡張期終末部
CDISC Definition_J
心血管構造の境界内に囲まれ、心室拡張期末に測定される 2 次元表面。
NCI Preferred Term_J
心室拡張期終末面積

Domain
CV
Code
C127538
xxTESTCD
AREAEVS
xxTEST
Area, End Ventricular Systole
CDISC Synonym(s)
Area, End Ventricular Systole
CDISC Definition
The 2-dimensional surface enclosed within a boundary of a cardiovascular structure and measured at end ventricular systole.
NCI Preferred Term
Area at End Ventricular Systole
xxTEST_J
領域、心室収縮終期
CDISC Synonym(s)_J
領域、心室収縮終期
CDISC Definition_J
心血管構造の境界内に囲まれ、心室収縮末期に測定される 2 次元表面。
NCI Preferred Term_J
心室収縮終末部の面積

Domain
LB
Code
C199888
xxTESTCD
AREG
xxTEST
Amphiregulin
CDISC Synonym(s)
Amphiregulin; Schwannoma-Derived Growth Factor; SDGF
CDISC Definition
A measurement of the amphiregulin in a biological specimen.
NCI Preferred Term
Amphiregulin Measurement
xxTEST_J
アンフィレグリン
CDISC Synonym(s)_J
アンフィレグリン;神経鞘腫由来成長因子; SDGF
CDISC Definition_J
生物標本中のアンフィレグリンの測定。
NCI Preferred Term_J
アンフィレグリン測定

Domain
LB
Code
C122095
xxTESTCD
ARG
xxTEST
Arginine
CDISC Synonym(s)
Arginine
CDISC Definition
A measurement of the arginine in a biological specimen.
NCI Preferred Term
Arginine Measurement
xxTEST_J
アルギニン
CDISC Synonym(s)_J
アルギニン
CDISC Definition_J
生物標本中のアルギニンの測定。
NCI Preferred Term_J
アルギニン測定

Domain
CV
Code
C127539
xxTESTCD
ARGJWLVD
xxTEST
Aortic Regur Jet Width LVOT Diam Rt
CDISC Synonym(s)
Aortic Regur Jet Width LVOT Diam Rt; Aortic Regurgitant Jet Width to Left Ventricular Outflow Tract Diameter Ratio
CDISC Definition
A relative measurement (ratio) of the aortic regurgitant jet width to left ventricular outflow tract (LVOT) diameter.
NCI Preferred Term
Aortic Regurgitant Jet Width to Left Ventricular Outflow Tract Diameter Ratio
xxTEST_J
大動脈弁逆流ジェット幅 LVOT径 右
CDISC Synonym(s)_J
大動脈弁逆流ジェット幅 LVOT径Rt; 大動脈弁逆流ジェット幅と左室流出路径の比
CDISC Definition_J
大動脈弁逆流ジェット幅と左室流出路 (LVOT) 径の相対的な測定値 (比率)。
NCI Preferred Term_J
大動脈逆流ジェット幅と左室流出路径の比

Domain
LB
Code
C154763
xxTESTCD
ARGSAC
xxTEST
Argininosuccinic Acid
CDISC Synonym(s)
Argininosuccinate; Argininosuccinic Acid
CDISC Definition
A measurement of the argininosuccinic acid in a biological specimen.
NCI Preferred Term
Argininosuccinic Acid Measurement
xxTEST_J
アルギニノコハク酸
CDISC Synonym(s)_J
アルギニノコハク酸
CDISC Definition_J
生物標本中のアルギニノコハク酸の測定。
NCI Preferred Term_J
アルギニノコハク酸測定

Domain
IS
Code
C187776
xxTESTCD
ARIGAAB
xxTEST
Allergen-induced IgA Antibody
CDISC Synonym(s)
Allergen-induced IgA Antibody
CDISC Definition
A measurement of the binding allergen-induced IgA antibody in a biological specimen.
NCI Preferred Term
Allergen-induced IgA Antibody Measurement
xxTEST_J
アレルゲン誘発性IgA抗体
CDISC Synonym(s)_J
アレルゲン誘発性IgA抗体
CDISC Definition_J
生物標本中のアレルゲン誘導性 IgA 抗体の結合の測定。
NCI Preferred Term_J
アレルゲン誘発IgA抗体測定

Domain
IS
Code
C181398
xxTESTCD
ARIGEAB
xxTEST
Allergen-induced IgE Antibody
CDISC Synonym(s)
Allergen-induced IgE Antibody
CDISC Definition
A measurement of the binding allergen-induced IgE antibody in a biological specimen.
NCI Preferred Term
Allergen-induced IgE Antibody Measurement
xxTEST_J
アレルゲン誘発IgE抗体
CDISC Synonym(s)_J
アレルゲン誘発IgE抗体
CDISC Definition_J
生物標本中のアレルゲン誘導性 IgE 抗体の結合の測定。
NCI Preferred Term_J
アレルゲン誘発IgE抗体測定

Domain
IS
Code
C187778
xxTESTCD
ARIGG4AB
xxTEST
Allergen-induced IgG4 Antibody
CDISC Synonym(s)
Allergen-induced IgG4 Antibody
CDISC Definition
A measurement of the binding allergen-induced IgG4 antibody in a biological specimen.
NCI Preferred Term
Allergen-induced IgG4 Antibody Measurement
xxTEST_J
アレルゲン誘発IgG4抗体
CDISC Synonym(s)_J
アレルゲン誘発IgG4抗体
CDISC Definition_J
生物学的標本中の結合アレルゲン誘発IgG4抗体の測定。
NCI Preferred Term_J
アレルゲン誘発IgG4抗体測定

Domain
IS
Code
C187777
xxTESTCD
ARIGGAB
xxTEST
Allergen-induced IgG Antibody
CDISC Synonym(s)
Allergen-induced IgG Antibody
CDISC Definition
A measurement of the binding allergen-induced IgG antibody in a biological specimen.
NCI Preferred Term
Allergen-induced IgG Antibody Measurement
xxTEST_J
アレルゲン誘発IgG抗体
CDISC Synonym(s)_J
アレルゲン誘発IgG抗体
CDISC Definition_J
生物学的標本中のアレルゲン誘導性 IgG 抗体の結合の測定。
NCI Preferred Term_J
アレルゲン誘発IgG抗体測定

Domain
IS
Code
C187779
xxTESTCD
ARIGMAB
xxTEST
Allergen-induced IgM Antibody
CDISC Synonym(s)
Allergen-induced IgM Antibody
CDISC Definition
A measurement of the binding allergen-induced IgM antibody in a biological specimen.
NCI Preferred Term
Allergen-induced IgM Antibody Measurement
xxTEST_J
アレルゲン誘発IgM抗体
CDISC Synonym(s)_J
アレルゲン誘発IgM抗体
CDISC Definition_J
生物学的標本中の結合アレルゲン誘発 IgM 抗体の測定。
NCI Preferred Term_J
アレルゲン誘発IgM抗体測定

Domain
VS
Code
C181553
xxTESTCD
ARMSPAN
xxTEST
Arm Span
CDISC Synonym(s)
Arm Span; Armspan; Reach; Wingspan
CDISC Definition
A measurement of the length from the tip of the middle finger on one hand to the tip of the middle finger on the other hand with the individual standing against the wall with both arms abducted to 90 degrees, the elbows and wrists extended, and the palms
NCI Preferred Term
Arm Span
xxTEST_J
腕の長さ
CDISC Synonym(s)_J
腕幅; 腕を広げる; 届く範囲; 翼を広げる
CDISC Definition_J
壁に向かって両腕を90度に曲げ、肘と手首を伸ばし、手のひらを曲げた状態で立った状態で、片方の手の中指の先端からもう一方の手の中指の先端までの長さを測る。
NCI Preferred Term_J
腕の長さ

Domain
LB
Code
C177974
xxTESTCD
ARPIPZL
xxTEST
Aripiprazole
CDISC Synonym(s)
Aripiprazole
CDISC Definition
A measurement of the aripiprazole in a biological specimen.
NCI Preferred Term
Aripiprazole Measurement
xxTEST_J
アリピプラゾール
CDISC Synonym(s)_J
アリピプラゾール
CDISC Definition_J
生物標本中のアリピプラゾールの測定。
NCI Preferred Term_J
アリピプラゾール測定

Domain
LB
Code
C124338
xxTESTCD
ARR
xxTEST
Aldosterone/Renin Activity
CDISC Synonym(s)
Aldosterone/Renin Activity
CDISC Definition
A relative measurement (ratio) of the aldosterone to renin activity in a biological specimen.
NCI Preferred Term
Aldosterone to Renin Activity Ratio Measurement
xxTEST_J
アルドステロン/レニン活性
CDISC Synonym(s)_J
アルドステロン/レニン活性
CDISC Definition_J
生物学的標本におけるアルドステロンとレニンの活性の相対的な測定値（比率）。
NCI Preferred Term_J
アルドステロンとレニンの活性比測定

Domain
LB
Code
C147305
xxTESTCD
ARSENIC
xxTEST
Arsenic
CDISC Synonym(s)
Arsenic; As
CDISC Definition
A measurement of the arsenic in a specimen.
NCI Preferred Term
Arsenic Measurement
xxTEST_J
砒素
CDISC Synonym(s)_J
ヒ素; As
CDISC Definition_J
標本中のヒ素の測定。
NCI Preferred Term_J
ヒ素測定

Domain
MI
Code
C135463
xxTESTCD
ARTLRHYT
xxTEST
Arteriolar Hyaline Thickening
CDISC Synonym(s)
Arteriolar Hyaline Thickening
CDISC Definition
An evaluation of the arteriolar hyaline thickening of vessels in a biological specimen.
NCI Preferred Term
Arteriolar Hyaline Thickening Assessment
xxTEST_J
細動脈硝子体肥厚
CDISC Synonym(s)_J
細動脈硝子体肥厚
CDISC Definition_J
生物標本における血管の細動脈硝子体肥厚の評価。
NCI Preferred Term_J
細動脈硝子体肥厚の評価

Domain
MI
Code
C184703
xxTESTCD
ARV7
xxTEST
Androgen Receptor Variant 7
CDISC Synonym(s)
Androgen Receptor Variant 7; AR-V7
CDISC Definition
A measurement of the androgen receptor variant 7 in a biological specimen.
NCI Preferred Term
Androgen Receptor Variant 7 Measurement
xxTEST_J
アンドロゲン受容体バリアント7
CDISC Synonym(s)_J
アンドロゲン受容体バリアント7; AR-V7
CDISC Definition_J
生物標本中のアンドロゲン受容体変異体 7 の測定。
NCI Preferred Term_J
アンドロゲン受容体バリアント7の測定

Domain
MI
Code
C200019
xxTESTCD
ASDCE
xxTEST
Total Assessed Cells
CDISC Synonym(s)
Total Assessed Cells; Total Cells
CDISC Definition
A measurement of the total number of cells that are observed during the evaluation, or assessed as part of the protocol-defined assay.
NCI Preferred Term
Total Assessed Cells Count
xxTEST_J
評価対象細胞総数
CDISC Synonym(s)_J
評価対象細胞総数; 細胞総数
CDISC Definition_J
評価中に観察される、またはプロトコルで定義されたアッセイの一部として評価される細胞の総数の測定値。
NCI Preferred Term_J
評価された細胞の総数

Domain
LB
Code
C177985
xxTESTCD
ASENAPN
xxTEST
Asenapine
CDISC Synonym(s)
Asenapine
CDISC Definition
A measurement of the asenapine in a biological specimen.
NCI Preferred Term
Asenapine Measurement
xxTEST_J
アセナピン
CDISC Synonym(s)_J
アセナピン
CDISC Definition_J
生物標本中のアセナピンの測定。
NCI Preferred Term_J
アセナピン測定

Domain
MI
Code
C201447
xxTESTCD
ASGMGIND
xxTEST
Adequate Surgical Margins Indicator
CDISC Synonym(s)
Adequate Surgical Margins Indicator
CDISC Definition
An indication as to whether there is adequate distance of apparently non-tumorous tissue from the resected tumor.
NCI Preferred Term
Adequate Surgical Margin Indicator
xxTEST_J
適切な手術マージン指標
CDISC Synonym(s)_J
適切な手術マージン指標
CDISC Definition_J
切除した腫瘍から明らかに非腫瘍性の組織までの距離が十分にあるかどうかを示します。
NCI Preferred Term_J
適切な手術マージン指標

Domain
LB
Code
C163422
xxTESTCD
ASMACT
xxTEST
Alpha-Smooth Muscle Actin
CDISC Synonym(s)
Alpha-Actin 2; Alpha-SMA; Alpha-Smooth Muscle Actin
CDISC Definition
A measurement of the alpha-smooth muscle actin in a biological specimen.
NCI Preferred Term
Alpha-Smooth Muscle Actin Measurement
xxTEST_J
α-平滑筋アクチン
CDISC Synonym(s)_J
アルファアクチン2; アルファSMA; アルファ平滑筋アクチン
CDISC Definition_J
生物標本中のα平滑筋アクチンの測定。
NCI Preferred Term_J
α平滑筋アクチン測定

Domain
MK
Code
C178018
xxTESTCD
ASMMASS
xxTEST
Appendicular Skeletal Muscle Mass
CDISC Synonym(s)
Appendicular Skeletal Muscle Mass; ASMM
CDISC Definition
A measurement of the mass of the muscles of the arms and legs.
NCI Preferred Term
Appendicular Skeletal Muscle Mass Measurement
xxTEST_J
四肢骨格筋量
CDISC Synonym(s)_J
四肢骨格筋量; ASMM
CDISC Definition_J
腕と脚の筋肉の質量の測定値。
NCI Preferred Term_J
四肢骨格筋量測定

Domain
LB
Code
C122096
xxTESTCD
ASN
xxTEST
Asparagine
CDISC Synonym(s)
Asparagine
CDISC Definition
A measurement of the asparagine in a biological specimen.
NCI Preferred Term
Asparagine Measurement
xxTEST_J
アスパラギン
CDISC Synonym(s)_J
アスパラギン
CDISC Definition_J
生物標本中のアスパラギンの測定。
NCI Preferred Term_J
アスパラギン測定

Domain
LB
Code
C122097
xxTESTCD
ASP
xxTEST
Aspartic Acid
CDISC Synonym(s)
Aspartate; Aspartic Acid
CDISC Definition
A measurement of the aspartic acid in a biological specimen.
NCI Preferred Term
Aspartic Acid Measurement
xxTEST_J
アスパラギン酸
CDISC Synonym(s)_J
アスパラギン酸
CDISC Definition_J
生物標本中のアスパラギン酸の測定。
NCI Preferred Term_J
アスパラギン酸測定

Domain
MB
Code
C189540
xxTESTCD
ASPAG
xxTEST
Aspergillus Antigen
CDISC Synonym(s)
Aspergillus Antigen
CDISC Definition
A measurement of the antigen from any member of the genus Aspergillus in a biological specimen.
NCI Preferred Term
Aspergillus Antigen Measurement
xxTEST_J
アスペルギルス抗原
CDISC Synonym(s)_J
アスペルギルス抗原
CDISC Definition_J
生物標本中のアスペルギルス属の任意の菌の抗原の測定。
NCI Preferred Term_J
アスペルギルス抗原測定

Domain
MB
Code
C198303
xxTESTCD
ASPDNA
xxTEST
Aspergillus DNA
CDISC Synonym(s)
Aspergillus DNA
CDISC Definition
A measurement of the DNA from any member of the genus Aspergillus in a biological specimen.
NCI Preferred Term
Aspergillus DNA Measurement
xxTEST_J
アスペルギルスDNA
CDISC Synonym(s)_J
アスペルギルスDNA
CDISC Definition_J
生物標本中のアスペルギルス属の任意の菌の DNA の測定。
NCI Preferred Term_J
アスペルギルスDNA測定

Domain
MB
Code
C172528
xxTESTCD
ASPERGIL
xxTEST
Aspergillus
CDISC Synonym(s)
Aspergillus
CDISC Definition
A measurement of the organisms that are not assigned to the species level but are assigned to the Aspergillus genus level in a biological specimen.
NCI Preferred Term
Aspergillus Measurement
xxTEST_J
アスペルギルス
CDISC Synonym(s)_J
アスペルギルス
CDISC Definition_J
生物標本において、種レベルには割り当てられていないが、アスペルギルス属レベルに割り当てられている生物の測定値。
NCI Preferred Term_J
アスペルギルス測定

Domain
SR
Code
C112221
xxTESTCD
ASRINDEX
xxTEST
Allergen Skin Response Index
CDISC Synonym(s)
Allergen Skin Response Index
CDISC Definition
A relative measurement (ratio or percentage) of the allergen wheal size to the positive control wheal size in an allergen skin test.
NCI Preferred Term
Allergen Skin Response Index Measurement
xxTEST_J
アレルゲン皮膚反応指数
CDISC Synonym(s)_J
アレルゲン皮膚反応指数
CDISC Definition_J
アレルゲン皮膚テストにおけるアレルゲン膨疹の大きさと陽性対照膨疹の大きさの相対的な測定値 (比率またはパーセンテージ)。
NCI Preferred Term_J
アレルゲン皮膚反応指数測定

Domain
SR
Code
C112222
xxTESTCD
ASRINT
xxTEST
Allergen Skin Response Intensity
CDISC Synonym(s)
Allergen Skin Response Intensity
CDISC Definition
A semi-quantitative assessment of the intensity of the wheal and flare reaction.
NCI Preferred Term
Allergen Skin Response Intensity Measurement
xxTEST_J
アレルゲン皮膚反応強度
CDISC Synonym(s)_J
アレルゲン皮膚反応強度
CDISC Definition_J
膨疹および発赤反応の強度の半定量的評価。
NCI Preferred Term_J
アレルゲン皮膚反応強度測定

Domain
LB
Code
C92269
xxTESTCD
ASSDNA
xxTEST
Anti-Single Stranded DNA IgG
CDISC Synonym(s)
Anti-Single Stranded DNA IgG
CDISC Definition
A measurement of the anti-single stranded DNA IgG antibody in a biological specimen.
NCI Preferred Term
Anti-Single Stranded DNA IgG Measurement
xxTEST_J
抗一本鎖DNA IgG
CDISC Synonym(s)_J
抗一本鎖DNA IgG
CDISC Definition_J
生物学的標本中の抗一本鎖 DNA IgG 抗体の測定。
NCI Preferred Term_J
抗一本鎖DNA IgG測定

Domain
LB
Code
C64467
xxTESTCD
AST
xxTEST
Aspartate Aminotransferase
CDISC Synonym(s)
Aspartate Aminotransferase; Aspartate Aminotransferase Antigen; SGOT; SGOT Antigen
CDISC Definition
A measurement of the aspartate aminotransferase in a biological specimen.
NCI Preferred Term
Aspartate Aminotransferase Measurement
xxTEST_J
アスパラギン酸アミノトランスフェラーゼ
CDISC Synonym(s)_J
アスパラギン酸アミノトランスフェラーゼ; アスパラギン酸アミノトランスフェラーゼ抗原; SGOT; SGOT抗原
CDISC Definition_J
生物標本中のアスパラギン酸アミノトランスフェラーゼの測定。
NCI Preferred Term_J
アスパラギン酸アミノトランスフェラーゼ測定

Domain
LB
Code
C176297
xxTESTCD
ASTALT
xxTEST
AST/ALT
CDISC Synonym(s)
AST/ALT
CDISC Definition
A relative measurement (ratio or percentage) of the aspartate aminotransferase (AST) to alanine aminotransferase (ALT) present in a sample.
NCI Preferred Term
Aspartate Aminotransferase to Alanine Aminotransferase Ratio Measurement
xxTEST_J
AST/ALT
CDISC Synonym(s)_J
AST/ALT
CDISC Definition_J
サンプル中に存在するアスパラギン酸アミノトランスフェラーゼ (AST) とアラニンアミノトランスフェラーゼ (ALT) の相対的な測定値 (比率またはパーセンテージ)。
NCI Preferred Term_J
アスパラギン酸アミノトランスフェラーゼとアラニンアミノトランスフェラーゼの比率測定

Domain
OE
Code
C117889
xxTESTCD
ASTAXIS
xxTEST
Astigmatism Axis
CDISC Synonym(s)
Astigmatism Axis
CDISC Definition
A measurement of the location, in degrees, of the flatter principal meridian on a 180-degree scale, where 90 degrees designates the vertical meridian and 180 degrees designates the horizontal meridian.
NCI Preferred Term
Astigmatism Axis
xxTEST_J
乱視軸
CDISC Synonym(s)_J
乱視軸
CDISC Definition_J
180 度スケール上の平坦な主子午線の位置を度数で測定した値。90 度は垂直子午線、180 度は水平子午線を示します。
NCI Preferred Term_J
乱視軸

Domain
LB
Code
C201427
xxTESTCD
ASTC
xxTEST
Aspartate Aminotransferase Isoenzyme C
CDISC Synonym(s)
Aspartate Aminotransferase Isoenzyme C; Aspartate Aminotransferase Isoenzyme Cytoplasmic; C-AST; cAspAT; Cytoplasmic Isoenzyme of Aspartate Aminotransferase; SGOT Isoenzyme C
CDISC Definition
A measurement of the aspartate aminotransferase isoenzyme C in a biological specimen.
NCI Preferred Term
Aspartate Aminotransferase Isoenzyme C Measurement
xxTEST_J
アスパラギン酸アミノトランスフェラーゼアイソザイムC
CDISC Synonym(s)_J
アスパラギン酸アミノトランスフェラーゼアイソザイム C; アスパラギン酸アミノトランスフェラーゼアイソザイム 細胞質; C-AST; cAspAT; アスパラギン酸アミノトランスフェラーゼの細胞質アイソザイム; SGOT アイソザイム C
CDISC Definition_J
生物標本中のアスパラギン酸アミノトランスフェラーゼアイソザイムCの測定。
NCI Preferred Term_J
アスパラギン酸アミノトランスフェラーゼアイソザイムC測定

Domain
LB
Code
C158225
xxTESTCD
ASTCK
xxTEST
AST/Creatine Kinase
CDISC Synonym(s)
Aspartate Aminotransferase/CPK; Aspartate Aminotransferase/Creatine Kinase; AST/Creatine Kinase
CDISC Definition
A relative measurement (ratio) of the aspartate aminotransferase to creatine kinase in a biological specimen.
NCI Preferred Term
Aspartate Aminotransferase to Creatine Kinase Ratio Measurement
xxTEST_J
AST/クレアチンキナーゼ
CDISC Synonym(s)_J
アスパラギン酸アミノトランスフェラーゼ/CPK; アスパラギン酸アミノトランスフェラーゼ/クレアチンキナーゼ; AST/クレアチンキナーゼ
CDISC Definition_J
生物標本中のアスパラギン酸アミノトランスフェラーゼとクレアチンキナーゼの相対的な測定値（比率）。
NCI Preferred Term_J
アスパラギン酸アミノトランスフェラーゼとクレアチンキナーゼの比率測定

Domain
LB
Code
C117830
xxTESTCD
ASTCREAT
xxTEST
Aspartate Aminotransferase/Creatinine
CDISC Synonym(s)
Aspartate Aminotransferase/Creatinine
CDISC Definition
A relative measurement (ratio or percentage) of the aspartate aminotransferase to creatinine in a biological specimen.
NCI Preferred Term
Aspartate Aminotransferase to Creatinine Ratio Measurement
xxTEST_J
アスパラギン酸アミノトランスフェラーゼ/クレアチニン
CDISC Synonym(s)_J
アスパラギン酸アミノトランスフェラーゼ/クレアチニン
CDISC Definition_J
生物標本中のアスパラギン酸アミノトランスフェラーゼとクレアチニンの相対的な測定値（比率またはパーセンテージ）。
NCI Preferred Term_J
アスパラギン酸アミノトランスフェラーゼとクレアチニンの比率測定

Domain
LB
Code
C186027
xxTESTCD
ASTDLG3A
xxTEST
3-Alpha-Androstanediol Glucuronide
CDISC Synonym(s)
3-Alpha-Androstanediol Glucuronide
CDISC Definition
A measurement of the 3-alpha-androstanediol glucuronide in a biological specimen.
NCI Preferred Term
3-Alpha-Androstanediol Glucuronide Measurement
xxTEST_J
3-アルファ-アンドロスタンジオールグルクロニド
CDISC Synonym(s)_J
3-アルファ-アンドロスタンジオールグルクロニド
CDISC Definition_J
生物標本中の 3-α-アンドロスタンジオールグルクロン酸抱合体の測定。
NCI Preferred Term_J
3-アルファ-アンドロスタンジオールグルクロン酸抱合体測定

Domain
LB
Code
C201428
xxTESTCD
ASTM
xxTEST
Aspartate Aminotransferase Isoenzyme M
CDISC Synonym(s)
Aspartate Aminotransferase Isoenzyme M; Aspartate Aminotransferase Isoenzyme Mitochondrial; M-AST; mAspAT; Mitochondrial Isoenzyme of Aspartate Aminotransferase; SGOT Isoenzyme M
CDISC Definition
A measurement of the aspartate aminotransferase isoenzyme M in a biological specimen.
NCI Preferred Term
Aspartate Aminotransferase Isoenzyme M Measurement
xxTEST_J
アスパラギン酸アミノトランスフェラーゼアイソザイムM
CDISC Synonym(s)_J
アスパラギン酸アミノトランスフェラーゼアイソザイム M; ミトコンドリアアスパラギン酸アミノトランスフェラーゼアイソザイム; M-AST; mAspAT; ミトコンドリアアスパラギン酸アミノトランスフェラーゼアイソザイム; SGOT アイソザイム M
CDISC Definition_J
生物標本中のアスパラギン酸アミノトランスフェラーゼアイソザイムMの測定。
NCI Preferred Term_J
アスパラギン酸アミノトランスフェラーゼアイソザイムM測定

Domain
LB
Code
C142272
xxTESTCD
ASYNP
xxTEST
Alpha Synuclein Protein
CDISC Synonym(s)
Alpha Synuclein Protein
CDISC Definition
A measurement of the alpha synuclein protein in a biological specimen.
NCI Preferred Term
Alpha Synuclein Protein Measurement
xxTEST_J
アルファシヌクレインタンパク質
CDISC Synonym(s)_J
アルファシヌクレインタンパク質
CDISC Definition_J
生物標本中のアルファシヌクレインタンパク質の測定。
NCI Preferred Term_J
αシヌクレインタンパク質測定

Domain
IS
Code
C181397
xxTESTCD
ATAB
xxTEST
Autoantibody
CDISC Synonym(s)
Autoantibody
CDISC Definition
A measurement of the binding autoantibody in a biological specimen.
NCI Preferred Term
Autoantibody Measurement
xxTEST_J
自己抗体
CDISC Synonym(s)_J
自己抗体
CDISC Definition_J
生物学的標本中の結合自己抗体の測定。
NCI Preferred Term_J
自己抗体測定

Domain
MK
Code
C221667
xxTESTCD
ATFV
xxTEST
Non-Adipose Tissue Volume
CDISC Synonym(s)
Adipose Tissue-Free Volume; Non-Adipose Tissue Volume
CDISC Definition
A measurement of the volume of total tissue distributed within a specific body region or the entire body, excluding adipose tissue.
NCI Preferred Term
Non-Adipose Tissue Volume Measurement
xxTEST_J
非脂肪組織の体積
CDISC Synonym(s)_J
脂肪組織を含まない体積; 非脂肪組織体積
CDISC Definition_J
脂肪組織を除いた、特定の身体部位または身体全体に分布する全組織の体積の測定値。
NCI Preferred Term_J
非脂肪組織体積測定

Domain
LB
Code
C147306
xxTESTCD
ATHMBAAC
xxTEST
Antithrombin Activity Actual/Control
CDISC Synonym(s)
Antithrombin Activity Actual/Antithrombin Activity Control; Antithrombin Activity Actual/Control; Antithrombin Activity Actual/Normal
CDISC Definition
A relative measurement (ratio or percentage) of the biological activity of antithrombin in a subject's specimen when compared to the same activity in a control specimen.
NCI Preferred Term
Antithrombin Activity Actual to Control Ratio Measurement
xxTEST_J
アンチトロンビン活性実測値/対照値
CDISC Synonym(s)_J
アンチトロンビン活性実測値/アンチトロンビン活性コントロール; アンチトロンビン活性実測値/コントロール; アンチトロンビン活性実測値/正常
CDISC Definition_J
被験者の検体中のアンチトロンビンの生物学的活性を対照検体中の同じ活性と比較した相対的な測定値（比率またはパーセンテージ）。
NCI Preferred Term_J
アンチトロンビン活性実測値と対照値比の測定

Domain
LB
Code
C170592
xxTESTCD
ATHMBAC
xxTEST
Antithrombin Actual/Control
CDISC Synonym(s)
Antithrombin Actual/Control; Antithrombin Actual/Normal
CDISC Definition
A relative measurement (ratio or percentage) of the Antithrombin in a subject's specimen when compared to a control specimen.
NCI Preferred Term
Antithrombin Actual to Control Ratio Measurement
xxTEST_J
アンチトロンビン実測値/対照値
CDISC Synonym(s)_J
アンチトロンビン実測値/対照値; アンチトロンビン実測値/正常値
CDISC Definition_J
被験者の検体中のアンチトロンビンをコントロール検体と比較した相対的な測定値（比率またはパーセンテージ）。
NCI Preferred Term_J
アンチトロンビン実測値と対照値の比測定

Domain
LB
Code
C154726
xxTESTCD
ATHPIDX
xxTEST
Atherogenic Index of Plasma
CDISC Synonym(s)
AIP; Atherogenic Index; Atherogenic Index of Plasma
CDISC Definition
A measurement of the base 10 logarithm of the ratio of molar concentration of plasma triglyceride to high density lipoprotein cholesterol in a biological specimen.
NCI Preferred Term
Atherogenic Index of Plasma
xxTEST_J
血漿の動脈硬化指数
CDISC Synonym(s)_J
AIP; アテローム生成指数; 血漿のアテローム生成指数
CDISC Definition_J
生物標本中の血漿トリグリセリドと高密度リポタンパク質コレステロールのモル濃度比の 10 を底とする対数の測定。
NCI Preferred Term_J
血漿の動脈硬化指数

Domain
IS
Code
C198278
xxTESTCD
ATIGAAB
xxTEST
IgA Autoantibody
CDISC Synonym(s)
IgA Autoantibody
CDISC Definition
A measurement of the binding IgA autoantibody in a biological specimen.
NCI Preferred Term
IgA Autoantibody Measurement
xxTEST_J
IgA自己抗体
CDISC Synonym(s)_J
IgA自己抗体
CDISC Definition_J
生物学的標本中の結合IgA自己抗体の測定。
NCI Preferred Term_J
IgA自己抗体測定

Domain
IS
Code
C204624
xxTESTCD
ATIGG1AB
xxTEST
IgG1 Autoantibody
CDISC Synonym(s)
IgG1 Autoantibody
CDISC Definition
A measurement of the binding IgG1 autoantibody in a biological specimen.
NCI Preferred Term
IgG1 Autoantibody Measurement
xxTEST_J
IgG1自己抗体
CDISC Synonym(s)_J
IgG1自己抗体
CDISC Definition_J
生物学的標本中の結合IgG1自己抗体の測定。
NCI Preferred Term_J
IgG1自己抗体測定

Domain
IS
Code
C204625
xxTESTCD
ATIGG2AB
xxTEST
IgG2 Autoantibody
CDISC Synonym(s)
IgG2 Autoantibody
CDISC Definition
A measurement of the binding IgG2 autoantibody in a biological specimen.
NCI Preferred Term
IgG2 Autoantibody Measurement
xxTEST_J
IgG2自己抗体
CDISC Synonym(s)_J
IgG2自己抗体
CDISC Definition_J
生物学的標本中の結合IgG2自己抗体の測定。
NCI Preferred Term_J
IgG2自己抗体測定

Domain
IS
Code
C204626
xxTESTCD
ATIGG3AB
xxTEST
IgG3 Autoantibody
CDISC Synonym(s)
IgG3 Autoantibody
CDISC Definition
A measurement of the binding IgG3 autoantibody in a biological specimen.
NCI Preferred Term
IgG3 Autoantibody Measurement
xxTEST_J
IgG3自己抗体
CDISC Synonym(s)_J
IgG3自己抗体
CDISC Definition_J
生物学的標本中の結合IgG3自己抗体の測定。
NCI Preferred Term_J
IgG3自己抗体測定

Domain
IS
Code
C198279
xxTESTCD
ATIGGAB
xxTEST
IgG Autoantibody
CDISC Synonym(s)
IgG Autoantibody
CDISC Definition
A measurement of the binding IgG autoantibody in a biological specimen.
NCI Preferred Term
IgG Autoantibody Measurement
xxTEST_J
IgG自己抗体
CDISC Synonym(s)_J
IgG自己抗体
CDISC Definition_J
生物学的標本中の結合IgG自己抗体の測定。
NCI Preferred Term_J
IgG自己抗体測定

Domain
IS
Code
C198280
xxTESTCD
ATIGMAB
xxTEST
IgM Autoantibody
CDISC Synonym(s)
IgM Autoantibody
CDISC Definition
A measurement of the binding IgM autoantibody in a biological specimen.
NCI Preferred Term
IgM Autoantibody Measurement
xxTEST_J
IgM自己抗体
CDISC Synonym(s)_J
IgM自己抗体
CDISC Definition_J
生物学的標本中の結合 IgM 自己抗体の測定。
NCI Preferred Term_J
IgM自己抗体測定

Domain
LB
Code
C199912
xxTESTCD
ATLKPRTN
xxTEST
Antileukoproteinase
CDISC Synonym(s)
ALK1; Antileukoproteinase; BLPI; Proteinase Inhibitor WAP4; Secretory Leukocyte Peptidase Inhibitor; Secretory Leukocyte Protease Inhibitor
CDISC Definition
A measurement of the antileukoproteinase in a biological specimen.
NCI Preferred Term
Antileukoproteinase Measurement
xxTEST_J
抗白血球プロテアーゼ
CDISC Synonym(s)_J
ALK1; 抗白血球プロテアーゼ; BLPI; プロテアーゼ阻害剤 WAP4; 分泌型白血球ペプチダーゼ阻害剤; 分泌型白血球プロテアーゼ阻害剤
CDISC Definition_J
生物標本中の抗ロイコプロテアーゼの測定。
NCI Preferred Term_J
抗ロイコプロテイナーゼの測定

Domain
NV
Code
C81324
xxTESTCD
ATNRFX
xxTEST
Asymmetric Tonic Neck Reflex
CDISC Synonym(s)
Asymmetric Tonic Neck Reflex; ATNR
CDISC Definition
An involuntary, primal response in the neonate in which the arm extends to follow the infant's gaze, while the opposing arm and leg flex inward.
NCI Preferred Term
Tonic Neck Reflex
xxTEST_J
非対称性緊張性頸反射
CDISC Synonym(s)_J
非対称性緊張性頸反射; ATNR
CDISC Definition_J
新生児の無意識の原始的反応で、腕を伸ばして乳児の視線を追うと同時に、反対側の腕と脚を内側に曲げます。
NCI Preferred Term_J
緊張性頸反射

Domain
LB
Code
C147307
xxTESTCD
ATP
xxTEST
Adenosine Triphosphate
CDISC Synonym(s)
Adenosine Triphosphate
CDISC Definition
A measurement of the adenosine triphosphate in a biological specimen.
NCI Preferred Term
Adenosine Triphosphate Measurement
xxTEST_J
アデノシン三リン酸
CDISC Synonym(s)_J
アデノシン三リン酸
CDISC Definition_J
生物標本中のアデノシン三リン酸の測定。
NCI Preferred Term_J
アデノシン三リン酸測定

Domain
LB
Code
C103350
xxTESTCD
ATPVITE
xxTEST
Alpha Tocopherol/Vitamin E
CDISC Synonym(s)
Alpha Tocopherol/Vitamin E
CDISC Definition
A relative measurement (ratio or percentage) of alpha-tocopherol to the total vitamin E in a biological specimen.
NCI Preferred Term
Alpha Tocopherol to Vitamin E Ratio Measurement
xxTEST_J
アルファトコフェロール/ビタミンE
CDISC Synonym(s)_J
アルファトコフェロール/ビタミンE
CDISC Definition_J
生物標本中の総ビタミン E に対するアルファトコフェロールの相対的な測定値 (比率またはパーセンテージ)。
NCI Preferred Term_J
アルファトコフェロールとビタミンEの比率測定

Domain
OE
Code
C214726
xxTESTCD
ATROPHY
xxTEST
Atrophy
CDISC Synonym(s)
Atrophy
CDISC Definition
An evaluation of atrophy (decrease in size, deterioration, and/or wasting) in a biological specimen or location.
NCI Preferred Term
Atrophy Assessment
xxTEST_J
萎縮
CDISC Synonym(s)_J
萎縮
CDISC Definition_J
生物学的標本または部位における萎縮（サイズの減少、劣化、および/または消耗）の評価。
NCI Preferred Term_J
萎縮評価

Domain
MK
Code
C221416
xxTESTCD
ATV
xxTEST
Adipose Tissue Volume
CDISC Synonym(s)
Adipose Tissue Volume; Total Adipose Tissue Volume
CDISC Definition
A measurement of the volume of total adipose tissue distributed within a specific body region or the entire body.
NCI Preferred Term
Adipose Tissue Volume Measurement
xxTEST_J
脂肪組織の体積
CDISC Synonym(s)_J
脂肪組織量; 総脂肪組織量
CDISC Definition_J
特定の身体部位または身体全体に分布する総脂肪組織の体積の測定値。
NCI Preferred Term_J
脂肪組織体積測定

Domain
PP
Code
C85564
xxTESTCD
AUCALL
xxTEST
AUC All
CDISC Synonym(s)
AUC All
CDISC Definition
The area under the curve (AUC) from the time of dosing to the time of the last observation, regardless of whether the last concentration is measurable or not.
NCI Preferred Term
Area Under the Curve All
xxTEST_J
AUC すべて
CDISC Synonym(s)_J
AUC すべて
CDISC Definition_J
最後の濃度が測定可能かどうかに関係なく、投与時から最後の観察時までの曲線下面積 (AUC)。
NCI Preferred Term_J
曲線下面積すべて

Domain
PP
Code
C92362
xxTESTCD
AUCALLB
xxTEST
AUC All Norm by BMI
CDISC Synonym(s)
AUC All Norm by BMI
CDISC Definition
The area under the curve (AUC) from the time of dosing to the time of the last observation divided by the body mass index, regardless of whether the last concentration is measurable or not.
NCI Preferred Term
AUC All Normalized by Body Mass Index
xxTEST_J
BMIによるAUC全正常値
CDISC Synonym(s)_J
BMIによるAUC全正常値
CDISC Definition_J
最後の濃度が測定可能かどうかに関係なく、投与時から最後の観察時までの曲線下面積 (AUC) をボディマス指数で割った値。
NCI Preferred Term_J
AUC すべてボディマス指数で正規化

Domain
PP
Code
C92306
xxTESTCD
AUCALLD
xxTEST
AUC All Norm by Dose
CDISC Synonym(s)
AUC All Norm by Dose
CDISC Definition
The area under the curve (AUC) from the time of dosing to the time of the last observation divided by the dose, regardless of whether the last concentration is measurable or not.
NCI Preferred Term
AUC All Normalized by Dose
xxTEST_J
用量別のAUC全正常値
CDISC Synonym(s)_J
用量別のAUC全正常値
CDISC Definition_J
最後の濃度が測定可能かどうかに関係なく、投与時から最後の観察時までの曲線下面積 (AUC) を投与量で割った値です。
NCI Preferred Term_J
AUC すべて投与量で正規化

Domain
PP
Code
C92307
xxTESTCD
AUCALLS
xxTEST
AUC All Norm by SA
CDISC Synonym(s)
AUC All Norm by SA
CDISC Definition
The area under the curve (AUC) from the time of dosing to the time of the last observation divided by the surface area, regardless of whether the last concentration is measurable or not.
NCI Preferred Term
AUC All Normalized by Surface Area
xxTEST_J
AUC 全標準（SA による）
CDISC Synonym(s)_J
AUC 全標準（SA による）
CDISC Definition_J
最後の濃度が測定可能かどうかに関係なく、投与時から最後の観察時までの曲線下面積 (AUC) を表面積で割った値です。
NCI Preferred Term_J
AUCはすべて表面積で正規化されています

Domain
PP
Code
C92308
xxTESTCD
AUCALLW
xxTEST
AUC All Norm by WT
CDISC Synonym(s)
AUC All Norm by WT
CDISC Definition
The area under the curve (AUC) from the time of dosing to the time of the last observation divided by the weight, regardless of whether the last concentration is measurable or not.
NCI Preferred Term
AUC All Normalized by Weight
xxTEST_J
AUC 全標準値（WT 別）
CDISC Synonym(s)_J
AUC 全標準値（WT 別）
CDISC Definition_J
最後の濃度が測定可能かどうかに関係なく、投与時から最後の観察時までの曲線下面積 (AUC) を体重で割った値です。
NCI Preferred Term_J
AUC すべて重量で正規化

Domain
PP
Code
C85761
xxTESTCD
AUCIFO
xxTEST
AUC Infinity Obs
CDISC Synonym(s)
AUC Infinity Obs
CDISC Definition
The area under the curve (AUC) extrapolated to infinity, calculated using the observed value of the last non-zero concentration.
NCI Preferred Term
Observed Area Under the Curve Infinity
xxTEST_J
AUC無限観測
CDISC Synonym(s)_J
AUC無限観測
CDISC Definition_J
最後のゼロ以外の濃度の観測値を使用して計算された、無限大に外挿された曲線下面積 (AUC)。
NCI Preferred Term_J
観測された曲線の無限大の下の領域

Domain
PP
Code
C92316
xxTESTCD
AUCIFOB
xxTEST
AUC Infinity Obs Norm by BMI
CDISC Synonym(s)
AUC Infinity Obs Norm by BMI
CDISC Definition
The area under the curve (AUC) extrapolated to infinity, calculated using the observed value of the last non-zero concentration, divided by the body mass index.
NCI Preferred Term
AUC Infinity Observed Normalized by Body Mass Index
xxTEST_J
BMIによるAUC無限大観測ノルム
CDISC Synonym(s)_J
BMIによるAUC無限大観測ノルム
CDISC Definition_J
最後の非ゼロ濃度の観測値を使用して計算され、ボディマス指数で割った、無限大に外挿された曲線下面積 (AUC)。
NCI Preferred Term_J
ボディマス指数で正規化されたAUC無限大の観測

Domain
PP
Code
C96695
xxTESTCD
AUCIFOD
xxTEST
AUC Infinity Obs Norm by Dose
CDISC Synonym(s)
AUC Infinity Obs Norm by Dose
CDISC Definition
The area under the curve (AUC) extrapolated to infinity, calculated using the observed value of the last non-zero concentration, divided by the dose.
NCI Preferred Term
AUC Infinity Observed Normalized by Dose
xxTEST_J
用量別のAUC無限大観測標準
CDISC Synonym(s)_J
用量別のAUC無限大観測標準
CDISC Definition_J
最後のゼロ以外の濃度の観測値を使用して計算され、投与量で割った、無限大に外挿された曲線下面積 (AUC)。
NCI Preferred Term_J
投与量で正規化されたAUC無限大の観測

Domain
PP
Code
C174345
xxTESTCD
AUCIFODW
xxTEST
AUC Infinity Obs Norm by Dose/WT
CDISC Synonym(s)
AUC Infinity Obs Norm by Dose/WT
CDISC Definition
The area under the curve (AUC) extrapolated to infinity, calculated using the observed value of the last non-zero concentration divided by the body weight-adjusted dose.
NCI Preferred Term
AUC Infinity Observed Normalized by Weight-Adjusted Dose
xxTEST_J
用量/体重別のAUC無限大観測標準
CDISC Synonym(s)_J
用量/体重別のAUC無限大観測標準
CDISC Definition_J
最後の非ゼロ濃度の観測値を体重調整投与量で割って計算し、無限大に外挿した曲線下面積 (AUC)。
NCI Preferred Term_J
体重調整投与量で正規化されたAUC無限大の観測

Domain
PP
Code
C161413
xxTESTCD
AUCIFOLN
xxTEST
AUC Infinity Obs LN Transformed
CDISC Synonym(s)
AUC Infinity Obs LN Transformed
CDISC Definition
The natural log transformed area under the curve (AUC) extrapolated to infinity, calculated using the observed value of the last non-zero concentration.
NCI Preferred Term
Natural Log Transformed Observed Area Under the Curve Infinity
xxTEST_J
AUC無限大観測LN変換
CDISC Synonym(s)_J
AUC無限大観測LN変換
CDISC Definition_J
最後のゼロ以外の濃度の観測値を使用して計算され、無限大に外挿された自然対数変換された曲線下面積 (AUC)。
NCI Preferred Term_J
自然対数変換された観測曲線下面積無限大

Domain
PP
Code
C92317
xxTESTCD
AUCIFOS
xxTEST
AUC Infinity Obs Norm by SA
CDISC Synonym(s)
AUC Infinity Obs Norm by SA
CDISC Definition
The area under the curve (AUC) extrapolated to infinity, calculated using the observed value of the last non-zero concentration, divided by the surface area.
NCI Preferred Term
AUC Infinity Observed Normalized by Surface Area
xxTEST_J
SAによるAUC無限大観測ノルム
CDISC Synonym(s)_J
SAによるAUC無限大観測ノルム
CDISC Definition_J
最後のゼロ以外の濃度の観測値を使用して計算され、表面積で割った、無限大に外挿された曲線下面積 (AUC)。
NCI Preferred Term_J
AUC無限大を表面積で正規化した値

Domain
PP
Code
C154845
xxTESTCD
AUCIFOUB
xxTEST
AUC Infinity Obs, Unbound Drug
CDISC Synonym(s)
AUC Infinity Obs, Unbound Drug
CDISC Definition
The portion of observed AUC to infinity, represented by the unbound fraction of drug.
NCI Preferred Term
Observed Area Under the Curve Infinity of Unbound Drug
xxTEST_J
AUC無限大Obs、非結合薬物
CDISC Synonym(s)_J
AUC無限大Obs、非結合薬物
CDISC Definition_J
薬物の非結合分率によって表される、観測された AUC の無限大までの部分。
NCI Preferred Term_J
非結合薬物の曲線無限大の観察領域

Domain
PP
Code
C92318
xxTESTCD
AUCIFOW
xxTEST
AUC Infinity Obs Norm by WT
CDISC Synonym(s)
AUC Infinity Obs Norm by WT
CDISC Definition
The area under the curve (AUC) extrapolated to infinity, calculated using the observed value of the last non-zero concentration, divided by the weight.
NCI Preferred Term
AUC Infinity Observed Normalized by Weight
xxTEST_J
WTによるAUC無限大観測ノルム
CDISC Synonym(s)_J
WTによるAUC無限大観測ノルム
CDISC Definition_J
最後のゼロ以外の濃度の観測値を使用して計算され、重量で割った、無限大に外挿された曲線の下の領域 (AUC)。
NCI Preferred Term_J
体重で正規化された観測AUC無限大

Domain
PP
Code
C85785
xxTESTCD
AUCIFP
xxTEST
AUC Infinity Pred
CDISC Synonym(s)
AUC Infinity Pred
CDISC Definition
The area under the curve (AUC) extrapolated to infinity, calculated using the predicted value of the last non-zero concentration.
NCI Preferred Term
Predicted Area Under the Curve Infinity
xxTEST_J
AUC無限予測
CDISC Synonym(s)_J
AUC無限予測
CDISC Definition_J
最後のゼロ以外の濃度の予測値を使用して計算された、無限大に外挿された曲線下面積 (AUC)。
NCI Preferred Term_J
予測曲線下面積無限大

Domain
PP
Code
C92319
xxTESTCD
AUCIFPB
xxTEST
AUC Infinity Pred Norm by BMI
CDISC Synonym(s)
AUC Infinity Pred Norm by BMI
CDISC Definition
The area under the curve (AUC) extrapolated to infinity, calculated using the predicted value of the last non-zero concentration, divided by the body mass index.
NCI Preferred Term
AUC Infinity Predicted Normalized by Body Mass Index
xxTEST_J
BMIによるAUC無限大予測正常値
CDISC Synonym(s)_J
BMIによるAUC無限大予測正常値
CDISC Definition_J
最後の非ゼロ濃度の予測値を使用して計算され、ボディマス指数で割った、無限大に外挿された曲線下面積 (AUC)。
NCI Preferred Term_J
ボディマス指数で正規化されたAUC無限大予測

Domain
PP
Code
C85786
xxTESTCD
AUCIFPD
xxTEST
AUC Infinity Pred Norm by Dose
CDISC Synonym(s)
AUC Infinity Pred Norm by Dose
CDISC Definition
The area under the curve (AUC) extrapolated to infinity, calculated using the predicted value of the last non-zero concentration, divided by the dose.
NCI Preferred Term
Predicted Area Under the Curve Infinity by Dose
xxTEST_J
用量別のAUC無限大予測正常値
CDISC Synonym(s)_J
用量別のAUC無限大予測正常値
CDISC Definition_J
最後のゼロ以外の濃度の予測値を使用して計算され、投与量で割った、無限大に外挿された曲線下面積 (AUC)。
NCI Preferred Term_J
線量による曲線無限大の予測領域

Domain
PP
Code
C174349
xxTESTCD
AUCIFPDW
xxTEST
AUCIFPDW Norm by Dose/WT
CDISC Synonym(s)
AUC Infinity Pred Norm by Dose per Body Weight; AUCIFPDW Norm by Dose/WT
CDISC Definition
The area under the curve (AUC) extrapolated to infinity, calculated using the predicted value of the last non-zero concentration divided by the body weight-adjusted dose.
NCI Preferred Term
AUC Infinity Predicted Normalized by Weight-Adjusted Dose
xxTEST_J
用量/体重別のAUCIFPDW基準値
CDISC Synonym(s)_J
体重あたりの投与量による AUC 無限大予測正常値; 投与量/体重による AUCIFPDW 正常値
CDISC Definition_J
最後のゼロ以外の濃度の予測値を体重調整投与量で割って計算し、無限大に外挿した曲線下面積 (AUC)。
NCI Preferred Term_J
体重調整投与量で正規化されたAUC無限大予測値

Domain
PP
Code
C92320
xxTESTCD
AUCIFPS
xxTEST
AUC Infinity Pred Norm by SA
CDISC Synonym(s)
AUC Infinity Pred Norm by SA
CDISC Definition
The area under the curve (AUC) extrapolated to infinity, calculated using the predicted value of the last non-zero concentration, divided by the surface area.
NCI Preferred Term
AUC Infinity Predicted Normalized by Surface Area
xxTEST_J
SAによるAUC無限大予測ノルム
CDISC Synonym(s)_J
SAによるAUC無限大予測ノルム
CDISC Definition_J
最後のゼロ以外の濃度の予測値を使用して計算され、表面積で割った、無限大に外挿された曲線下面積 (AUC)。
