Domain
LB
Code
C100429
xxTESTCD
A1AGLP
xxTEST
Alpha-1 Acid Glycoprotein
CDISC Synonym(s)
Alpha-1 Acid Glycoprotein
CDISC Definition
A measurement of the alpha-1 acid glycoprotein in a biological specimen.
NCI Preferred Term
Alpha-1 Acid Glycoprotein Measurement
xxTEST-J
アルファ1酸性糖タンパク質
CDISC Synonym(s)-J
アルファ1酸性糖タンパク質
CDISC Definition-J
生物標本中のアルファ 1 酸性糖タンパク質の測定。
NCI Preferred Term-J
アルファ1酸性糖タンパク質測定

Domain
LB
Code
C181404
xxTESTCD
A1ANTRPF
xxTEST
Alpha-1 Antitrypsin, Functional
CDISC Synonym(s)
Alpha-1 Antitrypsin, Functional
CDISC Definition
A measurement of the functional alpha-1 antitrypsin in a biological specimen.
NCI Preferred Term
Functional Alpha-1 Antitrypsin Measurement
xxTEST-J
アルファ1アンチトリプシン、機能性
CDISC Synonym(s)-J
アルファ1アンチトリプシン、機能性
CDISC Definition-J
生物学的標本中の機能的α-1アンチトリプシンの測定。
NCI Preferred Term-J
機能的α-1アンチトリプシン測定

Domain
LB
Code
C80167
xxTESTCD
A1ANTRYP
xxTEST
Alpha-1 Antitrypsin
CDISC Synonym(s)
Alpha-1 Antitrypsin; Serum Trypsin Inhibitor
CDISC Definition
A measurement of the alpha-1 antitrypsin in a biological specimen.
NCI Preferred Term
Alpha-1 Antitrypsin Measurement
xxTEST-J
アルファ1アンチトリプシン
CDISC Synonym(s)-J
α-1アンチトリプシン；血清トリプシンインヒビター
CDISC Definition-J
生物学的標本中のアルファ 1 アンチトリプシンの測定。
NCI Preferred Term-J
アルファ1アンチトリプシン測定

Domain
LB
Code
C186022
xxTESTCD
A1MCGEXR
xxTEST
Alpha-1 Microglobulin Excretion Rate
CDISC Synonym(s)
Alpha-1 Microglobulin Excretion Rate
CDISC Definition
A measurement of the amount of alpha-1 microglobulin being excreted in a biological specimen over a defined amount of time (e.g. one hour).
NCI Preferred Term
Alpha-1 Microglobulin Excretion Rate Measurement
xxTEST-J
アルファ1ミクログロブリン排泄率
CDISC Synonym(s)-J
アルファ1ミクログロブリン排泄率
CDISC Definition-J
定義された時間（例：1 時間）にわたって生物学的標本中に排出されるアルファ 1 ミクログロブリンの量を測定します。
NCI Preferred Term-J
アルファ1ミクログロブリン排泄率測定

Domain
LB
Code
C100462
xxTESTCD
A1MCREAT
xxTEST
Alpha-1 Microglobulin/Creatinine
CDISC Synonym(s)
Alpha-1 Microglobulin/Creatinine
CDISC Definition
A relative measurement (ratio or percentage) of the alpha-1 microglobulin to creatinine in a biological specimen.
NCI Preferred Term
Alpha-1 Microglobulin to Creatinine Ratio Measurement
xxTEST-J
アルファ1ミクログロブリン/クレアチニン
CDISC Synonym(s)-J
アルファ1ミクログロブリン/クレアチニン
CDISC Definition-J
生物学的標本中のクレアチニンに対するアルファ 1 ミクログロブリンの相対的な測定値 (比率またはパーセンテージ)。
NCI Preferred Term-J
アルファ1ミクログロブリン対クレアチニン比測定

Domain
LB
Code
C100461
xxTESTCD
A1MICG
xxTEST
Alpha-1 Microglobulin
CDISC Synonym(s)
Alpha-1 Microglobulin; Protein HC
CDISC Definition
A measurement of the alpha-1 microglobulin in a biological specimen.
NCI Preferred Term
Alpha-1 Microglobulin Measurement
xxTEST-J
アルファ1ミクログロブリン
CDISC Synonym(s)-J
アルファ1ミクログロブリン; タンパク質HC
CDISC Definition-J
生物学的標本中のアルファ 1 ミクログロブリンの測定。
NCI Preferred Term-J
アルファ1ミクログロブリン測定

Domain
BS
Code
C139281
xxTESTCD
A260A230
xxTEST
A260/A230 Ratio
CDISC Synonym(s)
A260/A230 Ratio
CDISC Definition
An assessment of nucleic acid purity that is measured by determining the ratio of light absorbance of the nucleic acid sample at 260nm and 230nm respectively.
NCI Preferred Term
A260 to A230 Ratio
xxTEST-J
A260/A230比率
CDISC Synonym(s)-J
A260/A230比率
CDISC Definition-J
核酸サンプルの260nmと230nmにおける吸光度の比率を測定することで測定される核酸の純度の評価。
NCI Preferred Term-J
A260とA230の比率

Domain
BS
Code
C139280
xxTESTCD
A260A280
xxTEST
A260/A280 Ratio
CDISC Synonym(s)
A260/A280 Ratio
CDISC Definition
An assessment of nucleic acid purity that is measured by determining the ratio of light absorbance of the nucleic acid sample at 260nm and 280nm respectively.
NCI Preferred Term
A260 to A280 Ratio
xxTEST-J
A260/A280比率
CDISC Synonym(s)-J
A260/A280比率
CDISC Definition-J
核酸サンプルの260nmと280nmにおける吸光度の比率を測定することで測定される核酸の純度の評価。
NCI Preferred Term-J
A260とA280の比率

Domain
LB
Code
C80168
xxTESTCD
A2MACG
xxTEST
Alpha-2 Macroglobulin
CDISC Synonym(s)
Alpha-2 Macroglobulin
CDISC Definition
A measurement of the alpha-2 macroglobulin in a biological specimen.
NCI Preferred Term
Alpha-2 Macroglobulin Measurement
xxTEST-J
アルファ2マクログロブリン
CDISC Synonym(s)-J
アルファ2マクログロブリン
CDISC Definition-J
生物学的標本中のアルファ 2 マクログロブリンの測定。
NCI Preferred Term-J
アルファ2マクログロブリン測定

Domain
LB
Code
C172524
xxTESTCD
A73OXC
xxTEST
7-alpha-Hydroxy-4-cholesten-3-one
CDISC Synonym(s)
7-Alpha hydroxy-4-cholesten-3-one; 7-alpha-Hydroxy-4-cholesten-3-one
CDISC Definition
A measurement of the 7-alpha-hydroxy-4-cholesten-3-one in a biological specimen.
NCI Preferred Term
7-alpha-Hydroxy-4-cholesten-3-one Measurement
xxTEST-J
7-アルファ-ヒドロキシ-4-コレステン-3-オン
CDISC Synonym(s)-J
7-アルファ-ヒドロキシ-4-コレステン-3-オン; 7-アルファ-ヒドロキシ-4-コレステン-3-オン
CDISC Definition-J
生物標本中の 7-アルファ-ヒドロキシ-4-コレステン-3-オンの測定。
NCI Preferred Term-J
7-α-ヒドロキシ-4-コレステン-3-オン測定

Domain
PT
Code
C210259
xxTESTCD
AALPHAC
xxTEST
2-Amino-9H-pyrido[2,3-b]indole
CDISC Synonym(s)
2-Amino-9H-pyrido[2,3-b]indole; A alpha C; A-alpha-C
CDISC Definition
A measurement of the 2-amino-9h-pyrido[2,3-b]indole in a specimen.
NCI Preferred Term
2-Amino-9H-pyrido[2,3-b]indole Measurement
xxTEST-J
2-アミノ-9H-ピリド[2,3-b]インドール
CDISC Synonym(s)-J
2-アミノ-9H-ピリド[2,3-b]インドール; A アルファ C; A-アルファ-C
CDISC Definition-J
検体中の2-アミノ-9h-ピリド[2,3-b]インドールの測定。
NCI Preferred Term-J
2-アミノ-9H-ピリド[2,3-b]インドール測定

Domain
LB
Code
C154761
xxTESTCD
AAMAPAC
xxTEST
Alpha-Aminoadipic Acid
CDISC Synonym(s)
Alpha-Aminoadipate; Alpha-Aminoadipic Acid
CDISC Definition
A measurement of the alpha-aminoadipic acid in a biological specimen.
NCI Preferred Term
Alpha-Aminoadipic Acid Measurement
xxTEST-J
α-アミノアジピン酸
CDISC Synonym(s)-J
α-アミノアジピン酸; α-アミノアジピン酸
CDISC Definition-J
生物標本中のα-アミノアジピン酸の測定。
NCI Preferred Term-J
α-アミノアジピン酸測定

Domain
LB
Code
C154759
xxTESTCD
AAMBTAC
xxTEST
Alpha-Aminobutyric Acid
CDISC Synonym(s)
Alpha-aminobutyrate; Alpha-Aminobutyric Acid; Homoalanine
CDISC Definition
A measurement of the alpha-aminobutyric acid in a biological specimen.
NCI Preferred Term
Alpha-Aminobutyric Acid Measurement
xxTEST-J
α-アミノ酪酸
CDISC Synonym(s)-J
α-アミノ酪酸; α-アミノ酪酸; ホモアラニン
CDISC Definition-J
生物標本中のα-アミノ酪酸の測定。
NCI Preferred Term-J
α-アミノ酪酸測定

Domain
MB
Code
C209632
xxTESTCD
AAN
xxTEST
Acinetobacter anitratus
CDISC Synonym(s)
Acinetobacter anitratus
CDISC Definition
A measurement of Acinetobacter anitratus in a biological specimen.
NCI Preferred Term
Acinetobacter anitratus Measurement
xxTEST-J
アシネトバクター・アニトラトゥス
CDISC Synonym(s)-J
アシネトバクター・アニトラトゥス
CDISC Definition-J
生物標本中の Acinetobacter anitratus の測定。
NCI Preferred Term-J
アシネトバクター・アニトラタス測定

Domain
LB
Code
C100430
xxTESTCD
AAP
xxTEST
Alanine Aminopeptidase
CDISC Synonym(s)
Alanine Aminopeptidase
CDISC Definition
A measurement of the alanine aminopeptidase in a biological specimen.
NCI Preferred Term
Alanine Aminopeptidase Measurement
xxTEST-J
アラニンアミノペプチダーゼ
CDISC Synonym(s)-J
アラニンアミノペプチダーゼ
CDISC Definition-J
生物標本中のアラニンアミノペプチダーゼの測定。
NCI Preferred Term-J
アラニンアミノペプチダーゼ測定

Domain
LB
Code
C189527
xxTESTCD
AATZPL
xxTEST
Alpha-1 Antitrypsin Z-Polymer
CDISC Synonym(s)
AAT Z-Polymer; Alpha-1 Antitrypsin Z-Polymer
CDISC Definition
A measurement of the polymers of Z-variant alpha-1 antitrypsin in a biological specimen.
NCI Preferred Term
Alpha-1 Antitrypsin Z-Polymer Measurement
xxTEST-J
アルファ-1アンチトリプシンZポリマー
CDISC Synonym(s)-J
AAT Zポリマー; アルファ1アンチトリプシン Zポリマー
CDISC Definition-J
生物学的標本中の Z 変異体アルファ 1 アンチトリプシンのポリマーの測定。
NCI Preferred Term-J
アルファ1アンチトリプシンZポリマー測定

Domain
CV
Code
C122038
xxTESTCD
AAUGIX
xxTEST
Aortic Augmentation Index
CDISC Synonym(s)
Aortic Augmentation Index
CDISC Definition
The augmentation pressure divided by the aortic pulse pressure (aortic systolic minus aortic diastolic pressure) multiplied by 100, expressed as a percentage.
NCI Preferred Term
Aortic Augmentation Index
xxTEST-J
大動脈増大指数
CDISC Synonym(s)-J
大動脈増大指数
CDISC Definition-J
増大圧力を大動脈脈圧（大動脈収縮期圧から大動脈拡張期圧を引いた値）で割り、100 を掛けてパーセントで表します。
NCI Preferred Term-J
大動脈増大指数

Domain
CV
Code
C122083
xxTESTCD
AAUGIX75
xxTEST
Aortic Augmentation Index at 75bpm
CDISC Synonym(s)
Aortic Augmentation Index at 75bpm
CDISC Definition
The aortic augmentation index normalized to a heart rate of 75 beats per minute.
NCI Preferred Term
Aortic Augmentation Index at 75bpm
xxTEST-J
大動脈増大係数75bpm
CDISC Synonym(s)-J
大動脈増大係数75bpm
CDISC Definition-J
大動脈増大係数は、心拍数 75 回/分に正規化されます。
NCI Preferred Term-J
大動脈増大係数75bpm

Domain
CV
Code
C122084
xxTESTCD
AAUGPR
xxTEST
Aortic Augmentation Pressure
CDISC Synonym(s)
Aortic Augmentation Pressure
CDISC Definition
The difference between the second pressure peak in the aortic wave, secondary to the pressure wave reflection from the sites of peripheral arterial impedance mismatch (P2) and the first pressure peak in the aortic wave form, secondary to ventricular eject
NCI Preferred Term
Aortic Augmentation Pressure
xxTEST-J
大動脈増大圧
CDISC Synonym(s)-J
大動脈増大圧
CDISC Definition-J
末梢動脈インピーダンス不整合部位からの圧力波反射に起因する大動脈波の2番目の圧力ピーク（P2）と、心室駆出に起因する大動脈波の最初の圧力ピークとの差。
NCI Preferred Term-J
大動脈増大圧

Domain
CV
Code
C122085
xxTESTCD
AAUGPRP1
xxTEST
Aortic Augmentation Pressure Peak P1
CDISC Synonym(s)
Aortic Augmentation Pressure Peak P1
CDISC Definition
The first pressure peak in the aortic wave form secondary to ventricular ejection.
NCI Preferred Term
Augmentation Pressure Point P1
xxTEST-J
大動脈増大圧力ピークP1
CDISC Synonym(s)-J
大動脈増大圧力ピークP1
CDISC Definition-J
大動脈波形の最初の圧力ピークは、心室駆出によって生じます。
NCI Preferred Term-J
増強圧力ポイントP1

Domain
CV
Code
C122086
xxTESTCD
AAUGPRP2
xxTEST
Aortic Augmentation Pressure Peak P2
CDISC Synonym(s)
Aortic Augmentation Pressure Peak P2
CDISC Definition
The second pressure peak in the aortic waveform secondary to pressure wave reflection from the periphery.
NCI Preferred Term
Augmentation Pressure Point P2
xxTEST-J
大動脈増大圧力ピークP2
CDISC Synonym(s)-J
大動脈増大圧力ピークP2
CDISC Definition-J
末梢からの圧力波反射によって生じる大動脈波形の 2 番目の圧力ピーク。
NCI Preferred Term-J
増強圧力ポイントP2

Domain
LB
Code
C199923
xxTESTCD
AB42AB40
xxTEST
Amyloid Beta 1-42/Amyloid Beta 1-40
CDISC Synonym(s)
Amyloid Beta 1-42/Amyloid Beta 1-40
CDISC Definition
A relative measurement (ratio) of the amyloid beta 1-42 to amyloid beta 1-40 in a biological specimen.
NCI Preferred Term
Amyloid Beta 1-42 to Amyloid Beta 1-40 Ratio Measurement
xxTEST-J
アミロイドβ1-42/アミロイドβ1-40
CDISC Synonym(s)-J
アミロイドβ1-42/アミロイドβ1-40
CDISC Definition-J
生物学的標本中のアミロイドβ1-42とアミロイドβ1-40の相対的な測定値（比率）。
NCI Preferred Term-J
アミロイドβ1-42対アミロイドβ1-40比測定

Domain
CP
Code
C198236
xxTESTCD
ABC
xxTEST
Abn Blast Cells
CDISC Synonym(s)
Abn Blast Cells; Abnormal Blast Cells
CDISC Definition
A measurement of the abnormal blast cells in a biological specimen.
NCI Preferred Term
Abnormal Blast Count
xxTEST-J
Abn芽球細胞
CDISC Synonym(s)-J
Abn 芽球細胞; 異常芽球細胞
CDISC Definition-J
生物標本内の異常な芽球細胞の測定。
NCI Preferred Term-J
異常な芽球数

Domain
CP
Code
C198237
xxTESTCD
ABCCE
xxTEST
Abn Blast Cells/Total Cells
CDISC Synonym(s)
Abn Blast Cells/Total Cells; Abnormal Blast Cells/Total Cells
CDISC Definition
A relative measurement (ratio or percentage) of the abnormal blast cells to total cells in a biological specimen.
NCI Preferred Term
Abnormal Blast to Total Cell Ratio Measurement
xxTEST-J
Abn 芽球細胞/総細胞数
CDISC Synonym(s)-J
異常芽球細胞数／総細胞数；異常芽球細胞数／総細胞数
CDISC Definition-J
生物標本中の全細胞に対する異常芽球細胞の相対的な測定値（比率またはパーセンテージ）。
NCI Preferred Term-J
異常な芽球対総細胞比測定

Domain
LB
Code
C184526
xxTESTCD
ABFBCA
xxTEST
AB-FUBINACA
CDISC Synonym(s)
AB-FUBINACA
CDISC Definition
A measurement of the synthetic cannabinoid AB-FUBINACA in a biological specimen.
NCI Preferred Term
AB-FUBINACA Measurement
xxTEST-J
AB-フビナカ
CDISC Synonym(s)-J
AB-フビナカ
CDISC Definition-J
生物標本中の合成カンナビノイド AB-FUBINACA の測定。
NCI Preferred Term-J
AB-FUBINACA測定

Domain
VS
Code
C87304
xxTESTCD
ABI
xxTEST
Ankle-Brachial Index
CDISC Synonym(s)
Ankle-Brachial Index
CDISC Definition
The ratio of ankle systolic pressure to brachial systolic pressure, used to assess arterial insufficiency in the lower extremities.
NCI Preferred Term
Ankle-Brachial Index
xxTEST-J
足首上腕血圧比
CDISC Synonym(s)-J
足首上腕血圧比
CDISC Definition-J
下肢の動脈不全を評価するために使用される、足首収縮期血圧と上腕収縮期血圧の比率。
NCI Preferred Term-J
足首上腕血圧比

Domain
LB
Code
C111124
xxTESTCD
ABNCE
xxTEST
Abnormal Cells
CDISC Synonym(s)
Abnormal Cells
CDISC Definition
A measurement of the abnormal cells in a biological specimen.
NCI Preferred Term
Abnormal Cell Count
xxTEST-J
異常細胞
CDISC Synonym(s)-J
異常細胞
CDISC Definition-J
生物標本内の異常細胞の測定。
NCI Preferred Term-J
異常細胞数

Domain
MI
Code
C111124
xxTESTCD
ABNCE
xxTEST
Abnormal Cells
CDISC Synonym(s)
Abnormal Cells
CDISC Definition
A measurement of the abnormal cells in a biological specimen.
NCI Preferred Term
Abnormal Cell Count
xxTEST-J
異常細胞
CDISC Synonym(s)-J
異常細胞
CDISC Definition-J
生物標本内の異常細胞の測定。
NCI Preferred Term-J
異常細胞数

Domain
LB
Code
C150835
xxTESTCD
ABNCECE
xxTEST
Abnormal Cells/Total Cells
CDISC Synonym(s)
Abnormal Cells/Total Cells
CDISC Definition
A relative measurement (ratio or percentage) of abnormal cells to total cells in a biological specimen.
NCI Preferred Term
Abnormal Cells to Total Cells Ratio Measurement
xxTEST-J
異常細胞数／総細胞数
CDISC Synonym(s)-J
異常細胞数／総細胞数
CDISC Definition-J
生物標本内の総細胞数に対する異常細胞の相対的な測定値（比率またはパーセンテージ）。
NCI Preferred Term-J
異常細胞と全細胞比の測定

Domain
LB
Code
C150834
xxTESTCD
ABNCELE
xxTEST
Abnormal Cells/Leukocytes
CDISC Synonym(s)
Abnormal Cells/Leukocytes
CDISC Definition
A relative measurement (ratio or percentage) of abnormal cells to leukocytes in a biological specimen.
NCI Preferred Term
Abnormal Cells to Leukocytes Ratio Measurement
xxTEST-J
異常細胞/白血球
CDISC Synonym(s)-J
異常細胞/白血球
CDISC Definition-J
生物標本中の白血球に対する異常細胞の相対的な測定値（比率またはパーセンテージ）。
NCI Preferred Term-J
異常細胞と白血球の比率測定

Domain
LB
Code
C125939
xxTESTCD
ABO
xxTEST
ABO Blood Group
CDISC Synonym(s)
ABO Blood Group
CDISC Definition
The characterization of the blood type of an individual by testing for the presence of A antigen and B antigen on the surface of red blood cells.
NCI Preferred Term
ABO Blood Group Determination
xxTEST-J
ABO式血液型
CDISC Synonym(s)-J
ABO式血液型
CDISC Definition-J
赤血球の表面にある A 抗原と B 抗原の存在を検査することで、個人の血液型を判定します。
NCI Preferred Term-J
ABO式血液型判定

Domain
LB
Code
C135397
xxTESTCD
ABOA1
xxTEST
ABO A1 Subtype
CDISC Synonym(s)
ABO A1 Subtype
CDISC Definition
The characterization of the ABO blood group A1 subtype in an individual. (NCI)
NCI Preferred Term
ABO A1 Subtype Determination
xxTEST-J
ABO A1サブタイプ
CDISC Synonym(s)-J
ABO A1サブタイプ
CDISC Definition-J
個人の ABO 血液型 A1 サブタイプの特徴。(NCI)
NCI Preferred Term-J
ABO A1サブタイプの判定

Domain
RP
Code
C106550
xxTESTCD
ABORTN
xxTEST
Number of Abortions
CDISC Synonym(s)
Number of Abortions
CDISC Definition
A measurement of the total number of instances in which there has been a spontaneous termination of pregnancy (miscarriage) or elective termination of pregnancy.
NCI Preferred Term
Number of Abortions
xxTEST-J
中絶件数
CDISC Synonym(s)-J
中絶件数
CDISC Definition-J
妊娠の自然な中絶（流産）または妊娠の希望的な中絶があった事例の総数を測定した値。
NCI Preferred Term-J
中絶件数

Domain
PT
Code
C204641
xxTESTCD
ABP4
xxTEST
4-Aminobiphenyl
CDISC Synonym(s)
4-ABP; 4-Aminobiphenyl
CDISC Definition
A measurement of the 4-aminobiphenyl in a specimen.
NCI Preferred Term
4-Aminobiphenyl Measurement
xxTEST-J
4-アミノビフェニル
CDISC Synonym(s)-J
4-ABP; 4-アミノビフェニル
CDISC Definition-J
標本中の 4-アミノビフェニルの測定。
NCI Preferred Term-J
4-アミノビフェニル測定

Domain
LB
Code
C204641
xxTESTCD
ABP4
xxTEST
4-Aminobiphenyl
CDISC Synonym(s)
4-ABP; 4-Aminobiphenyl
CDISC Definition
A measurement of the 4-aminobiphenyl in a specimen.
NCI Preferred Term
4-Aminobiphenyl Measurement
xxTEST-J
4-アミノビフェニル
CDISC Synonym(s)-J
4-ABP; 4-アミノビフェニル
CDISC Definition-J
標本中の 4-アミノビフェニルの測定。
NCI Preferred Term-J
4-アミノビフェニル測定

Domain
LB
Code
C184527
xxTESTCD
ABPNCA
xxTEST
AB-PINACA
CDISC Synonym(s)
AB-PINACA
CDISC Definition
A measurement of the synthetic cannabinoid AB-PINACA in a biological specimen.
NCI Preferred Term
AB-PINACA Measurement
xxTEST-J
AB-PINACA
CDISC Synonym(s)-J
AB-PINACA
CDISC Definition-J
生物標本中の合成カンナビノイド AB-PINACA の測定。
NCI Preferred Term-J
AB-PINACA測定

Domain
AU
Code
C184949
xxTESTCD
ABR
xxTEST
Auditory Brainstem Response
CDISC Synonym(s)
Auditory Brainstem Response
CDISC Definition
An assessment of auditory brainstem function in response to auditory stimuli.
NCI Preferred Term
Auditory Brainstem Response
xxTEST-J
聴性脳幹反応
CDISC Synonym(s)-J
聴性脳幹反応
CDISC Definition-J
聴覚刺激に対する聴覚脳幹機能の評価。
NCI Preferred Term-J
聴性脳幹反応

Domain
NV
Code
C181572
xxTESTCD
ABRIAL
xxTEST
ABR Wave I, Absolute Latency
CDISC Synonym(s)
ABR Wave I, Absolute Latency; Auditory Brainstem Response Wave I, Absolute Latency
CDISC Definition
A measurement of the absolute latency of the auditory brainstem response wave I of the auditory evoked potential waveform.
NCI Preferred Term
Auditory Brainstem Response Wave I, Absolute Latency
xxTEST-J
ABR第1波、絶対潜時
CDISC Synonym(s)-J
ABR第1波、絶対潜時；聴性脳幹反応第1波、絶対潜時
CDISC Definition-J
聴覚誘発電位波形の聴性脳幹反応波 I の絶対潜時の測定。
NCI Preferred Term-J
聴性脳幹反応第1波、絶対潜時

Domain
NV
Code
C181574
xxTESTCD
ABRVA
xxTEST
ABR Wave V, Amplitude
CDISC Synonym(s)
ABR Wave V, Amplitude; Auditory Brainstem Response Wave V, Amplitude
CDISC Definition
A measurement of the magnitude, or height, of the auditory brainstem response wave V of the auditory evoked potential waveform.
NCI Preferred Term
Auditory Brainstem Response Wave V, Amplitude
xxTEST-J
ABR波V、振幅
CDISC Synonym(s)-J
ABR第V波、振幅；聴性脳幹反応第V波、振幅
CDISC Definition-J
聴覚誘発電位波形の聴性脳幹反応波 V の大きさ、または高さの測定値。
NCI Preferred Term-J
聴性脳幹反応第V波、振幅

Domain
NV
Code
C181573
xxTESTCD
ABRVAL
xxTEST
ABR Wave V, Absolute Latency
CDISC Synonym(s)
ABR Wave V, Absolute Latency; Auditory Brainstem Response Wave V, Absolute Latency
CDISC Definition
A measurement of the absolute latency of the auditory brainstem response wave V of the auditory evoked potential waveform.
NCI Preferred Term
Auditory Brainstem Response Wave V, Absolute Latency
xxTEST-J
ABR Wave V、絶対潜時
CDISC Synonym(s)-J
ABR第V波、絶対潜時；聴性脳幹反応第V波、絶対潜時
CDISC Definition-J
聴覚誘発電位波形の聴性脳幹反応波 V の絶対潜時の測定。
NCI Preferred Term-J
聴性脳幹反応第V波、絶対潜時

Domain
NV
Code
C181575
xxTESTCD
ABRVP
xxTEST
ABR Wave V, Presence
CDISC Synonym(s)
ABR Wave V, Presence; Auditory Brainstem Response Wave V, Presence
CDISC Definition
An assessment of the presence of the auditory brainstem response wave V of the auditory evoked potential waveform.
NCI Preferred Term
Auditory Brainstem Response Wave V, Presence
xxTEST-J
ABR第5波、プレゼンス
CDISC Synonym(s)-J
ABR第V波、存在; 聴性脳幹反応第V波、存在
CDISC Definition-J
聴覚誘発電位波形の聴性脳幹反応波 V の存在の評価。
NCI Preferred Term-J
聴性脳幹反応第V波、存在

Domain
IS
Code
C181399
xxTESTCD
ABSCCL
xxTEST
Antibody-secreting Cells
CDISC Synonym(s)
Antibody-secreting Cells
CDISC Definition
A measurement of the antibody-secreting cells in a biological specimen.
NCI Preferred Term
Antibody-secreting Cells Measurement
xxTEST-J
抗体分泌細胞
CDISC Synonym(s)-J
抗体分泌細胞
CDISC Definition-J
生物学的標本中の抗体分泌細胞の測定。
NCI Preferred Term-J
抗体分泌細胞の測定

Domain
FA
Code
C181313
xxTESTCD
ABSCNUM
xxTEST
Number of Abscesses
CDISC Synonym(s)
Number of Abscesses
CDISC Definition
The number of abscesses observed.
NCI Preferred Term
Number of Abscesses
xxTEST-J
膿瘍の数
CDISC Synonym(s)-J
膿瘍の数
CDISC Definition-J
観察された膿瘍の数。
NCI Preferred Term-J
膿瘍の数

Domain
VS
Code
C103346
xxTESTCD
ABSKNF
xxTEST
Abdominal Skinfold Thickness
CDISC Synonym(s)
Abdominal Skinfold Thickness
CDISC Definition
A measurement for determining the subcutaneous fat layer thickness whereby a pinch of skin approximately five centimeters to the right of the umbilicus is measured using calipers. (NCI)
NCI Preferred Term
Abdominal Skinfold Thickness
xxTEST-J
腹部皮下脂肪の厚さ
CDISC Synonym(s)-J
腹部皮下脂肪の厚さ
CDISC Definition-J
皮下脂肪層の厚さを測定するための測定法。臍の右側約 5 センチメートルの皮膚をつまんで、ノギスを使用して測定します。(NCI)
NCI Preferred Term-J
腹部皮下脂肪の厚さ

Domain
LB
Code
C74699
xxTESTCD
ACANT
xxTEST
Acanthocytes
CDISC Synonym(s)
Acanthocytes
CDISC Definition
A measurement of the acanthocytes in a biological specimen.
NCI Preferred Term
Acanthocyte Count
xxTEST-J
有棘細胞
CDISC Synonym(s)-J
有棘細胞
CDISC Definition-J
生物標本中の有棘細胞の測定。
NCI Preferred Term-J
有棘赤血球数

Domain
LB
Code
C74633
xxTESTCD
ACANTRBC
xxTEST
Acanthocytes/Erythrocytes
CDISC Synonym(s)
Acanthocytes/Erythrocytes
CDISC Definition
A relative measurement (ratio or percentage) of acanthocytes to all erythrocytes in a biological specimen.
NCI Preferred Term
Acanthocyte to Erythrocyte Ratio Measurement
xxTEST-J
有棘赤血球
CDISC Synonym(s)-J
有棘赤血球
CDISC Definition-J
生物標本中のすべての赤血球に対する有棘赤血球の相対的な測定値（比率またはパーセンテージ）。
NCI Preferred Term-J
有棘赤血球比測定

Domain
MB
Code
C191309
xxTESTCD
ACBCM
xxTEST
A. calcoaceticus-baumannii Complex
CDISC Synonym(s)
A. calcoaceticus-baumannii Complex; Acinetobacter calcoaceticus-baumannii Complex
CDISC Definition
A measurement of the Acinetobacter calcoaceticus-baumannii complex in a biological specimen.
NCI Preferred Term
Acinetobacter calcoaceticus/baumannii Complex Measurement
xxTEST-J
A. calcoaceticus-baumannii複合体
CDISC Synonym(s)-J
A. calcoaceticus-baumannii 複合体; アシネトバクター calcoaceticus-baumannii 複合体
CDISC Definition-J
生物標本中の Acinetobacter calcoaceticus-baumannii 複合体の測定。
NCI Preferred Term-J
アシネトバクター・カルコアセティカス/バウマニ複合体測定

Domain
MB
Code
C191308
xxTESTCD
ACBCMDNA
xxTEST
A. calcoaceticus-baumannii Complex DNA
CDISC Synonym(s)
A. calcoaceticus-baumannii Complex DNA; Acinetobacter calcoaceticus-baumannii Complex DNA
CDISC Definition
A measurement of Acinetobacter Calcoaceticus-Baumannii complex DNA in a biological specimen.
NCI Preferred Term
Acinetobacter calcoaceticus/baumannii Complex DNA Measurement
xxTEST-J
A. calcoaceticus-baumannii複合体DNA
CDISC Synonym(s)-J
A. calcoaceticus-baumannii 複合体 DNA; アシネトバクター calcoaceticus-baumannii 複合体 DNA
CDISC Definition-J
生物標本中の Acinetobacter Calcoaceticus-Baumannii 複合体 DNA の測定。
NCI Preferred Term-J
アシネトバクター・カルコアセティカス/バウマニ複合体DNA測定

Domain
TR
Code
C214746
xxTESTCD
ACBSPPD
xxTEST
Absolute Change Baseline in Sum of PPD
CDISC Synonym(s)
Absolute Change Baseline in Sum of PPD
CDISC Definition
The current sum of products of perpendicular diameters minus the baseline sum of products of perpendicular diameters.
NCI Preferred Term
Absolute Change From Baseline in Sum of Products of Perpendicular Diameter
xxTEST-J
PPDの合計における絶対変化ベースライン
CDISC Synonym(s)-J
PPDの合計における絶対変化ベースライン
CDISC Definition-J
現在の垂直直径の積の合計から、垂直直径の積のベースラインの合計を引いたもの。
NCI Preferred Term-J
垂直直径の積の合計のベースラインからの絶対変化

Domain
MI
Code
C181485
xxTESTCD
ACDOBOD
xxTEST
Acidophil Body
CDISC Synonym(s)
Acidophil Bodies; Acidophil Body
CDISC Definition
An evaluation of acidophil bodies in a biological specimen.
NCI Preferred Term
Acidophil Body Assessment
xxTEST-J
好酸性体
CDISC Synonym(s)-J
好酸性小体
CDISC Definition-J
生物標本中の好酸球体の評価。
NCI Preferred Term-J
好酸性体評価

Domain
LB
Code
C80169
xxTESTCD
ACE
xxTEST
Angiotensin Converting Enzyme
CDISC Synonym(s)
Angiotensin Converting Enzyme
CDISC Definition
A measurement of the angiotensin converting enzyme in a biological specimen.
NCI Preferred Term
Angiotensin Converting Enzyme Measurement
xxTEST-J
アンジオテンシン変換酵素
CDISC Synonym(s)-J
アンジオテンシン変換酵素
CDISC Definition-J
生物標本中のアンジオテンシン変換酵素の測定。
NCI Preferred Term-J
アンジオテンシン変換酵素測定

Domain
PT
Code
C210260
xxTESTCD
ACETAMID
xxTEST
Acetamide
CDISC Synonym(s)
Acetamide
CDISC Definition
A measurement of the acetamide in a specimen.
NCI Preferred Term
Acetamide Measurement
xxTEST-J
アセトアミド
CDISC Synonym(s)-J
アセトアミド
CDISC Definition-J
検体中のアセトアミドの測定。
NCI Preferred Term-J
アセトアミド測定

Domain
LB
Code
C135398
xxTESTCD
ACETAMIN
xxTEST
Acetaminophen
CDISC Synonym(s)
Acetaminophen; Paracetamol
CDISC Definition
A measurement of the acetaminophen in a biological specimen.
NCI Preferred Term
Acetaminophen Measurement
xxTEST-J
アセトアミノフェン
CDISC Synonym(s)-J
アセトアミノフェン、パラセタモール
CDISC Definition-J
生物標本中のアセトアミノフェンの測定。
NCI Preferred Term-J
アセトアミノフェン測定

Domain
PT
Code
C210261
xxTESTCD
ACETATE
xxTEST
Acetate
CDISC Synonym(s)
Acetate; Acetic Acid
CDISC Definition
A measurement of the acetate in a specimen.
NCI Preferred Term
Acetate Measurement
xxTEST-J
アセテート
CDISC Synonym(s)-J
酢酸
CDISC Definition-J
標本中の酢酸の測定。
NCI Preferred Term-J
酢酸測定

Domain
LB
Code
C92247
xxTESTCD
ACETOAC
xxTEST
Acetoacetic Acid
CDISC Synonym(s)
Acetoacetate; Acetoacetic Acid
CDISC Definition
A measurement of the acetoacetic acid in a biological specimen.
NCI Preferred Term
Acetoacetic Acid Measurement
xxTEST-J
アセト酢酸
CDISC Synonym(s)-J
アセト酢酸
CDISC Definition-J
生物標本中のアセト酢酸の測定。
NCI Preferred Term-J
アセト酢酸測定

Domain
PT
Code
C210262
xxTESTCD
ACETOIN
xxTEST
Acetoin
CDISC Synonym(s)
3-hydroxy-2-butanone; 3-Hydroxybutanone; Acetoin; Acetyl Methyl Carbinol
CDISC Definition
A measurement of the acetoin in a specimen.
NCI Preferred Term
Acetoin Measurement
xxTEST-J
アセトイン
CDISC Synonym(s)-J
3-ヒドロキシ-2-ブタノン; 3-ヒドロキシブタノン; アセトイン; アセチルメチルカルビノール
CDISC Definition-J
検体中のアセトインの測定。
NCI Preferred Term-J
アセトイン測定

Domain
PT
Code
C147288
xxTESTCD
ACETONE
xxTEST
Acetone
CDISC Synonym(s)
Acetone
CDISC Definition
A measurement of the acetone in a specimen.
NCI Preferred Term
Acetone Measurement
xxTEST-J
アセトン
CDISC Synonym(s)-J
アセトン
CDISC Definition-J
標本中のアセトンの測定。
NCI Preferred Term-J
アセトン測定

Domain
LB
Code
C147288
xxTESTCD
ACETONE
xxTEST
Acetone
CDISC Synonym(s)
Acetone
CDISC Definition
A measurement of the acetone in a specimen.
NCI Preferred Term
Acetone Measurement
xxTEST-J
アセトン
CDISC Synonym(s)-J
アセトン
CDISC Definition-J
標本中のアセトンの測定。
NCI Preferred Term-J
アセトン測定

Domain
LB
Code
C74838
xxTESTCD
ACH
xxTEST
Acetylcholine
CDISC Synonym(s)
Acetylcholine
CDISC Definition
A measurement of the acetylcholine hormone in a biological specimen.
NCI Preferred Term
Acetylcholine Measurement
xxTEST-J
アセチルコリン
CDISC Synonym(s)-J
アセチルコリン
CDISC Definition-J
生物標本中のアセチルコリンホルモンの測定。
NCI Preferred Term-J
アセチルコリン測定

Domain
LB
Code
C96560
xxTESTCD
ACHE
xxTEST
Acetylcholinesterase
CDISC Synonym(s)
Acetylcholinesterase
CDISC Definition
A measurement of the acetylcholinesterase in a biological specimen.
NCI Preferred Term
Acetylcholinesterase Measurement
xxTEST-J
アセチルコリンエステラーゼ
CDISC Synonym(s)-J
アセチルコリンエステラーゼ
CDISC Definition-J
生物標本中のアセチルコリンエステラーゼの測定。
NCI Preferred Term-J
アセチルコリンエステラーゼ測定

Domain
TR
Code
C103347
xxTESTCD
ACHNAD
xxTEST
Absolute Change From Nadir
CDISC Synonym(s)
Absolute Change From Nadir
CDISC Definition
The current value minus the lowest value previously recorded.
NCI Preferred Term
Absolute Change From Nadir
xxTEST-J
最低水準からの絶対的な変化
CDISC Synonym(s)-J
最低水準からの絶対的な変化
CDISC Definition-J
現在の値から、以前に記録された最低値を引いた値。
NCI Preferred Term-J
最低水準からの絶対的な変化

Domain
MB
Code
C179755
xxTESTCD
ACINETOB
xxTEST
Acinetobacter
CDISC Synonym(s)
Acinetobacter
CDISC Definition
A measurement of the organisms that are not assigned to the species level but are assigned to the Acinetobacter genus level in a biological specimen.
NCI Preferred Term
Acinetobacter Measurement
xxTEST-J
アシネトバクター
CDISC Synonym(s)-J
アシネトバクター
CDISC Definition-J
生物標本において、種レベルには割り当てられていないが、アシネトバクター属レベルに割り当てられている生物の測定値。
NCI Preferred Term-J
アシネトバクター測定

Domain
FA
Code
C118936
xxTESTCD
ACMITYPE
xxTEST
Acute Myocardial Infarction Type
CDISC Synonym(s)
Acute Myocardial Infarction Type
CDISC Definition
Categorization of the type of acute myocardial infarction.
NCI Preferred Term
Acute Myocardial Infarction Type
xxTEST-J
急性心筋梗塞型
CDISC Synonym(s)-J
急性心筋梗塞型
CDISC Definition-J
急性心筋梗塞の種類の分類。
NCI Preferred Term-J
急性心筋梗塞型

Domain
FA
Code
C117037
xxTESTCD
ACNDEV
xxTEST
Action Taken With Device
CDISC Synonym(s)
Action Taken With Device
CDISC Definition
Action taken with respect to a device in a study, which may or may not be the device under study.
NCI Preferred Term
Action Taken with Device
xxTEST-J
デバイスで実行されたアクション
CDISC Synonym(s)-J
デバイスで実行されたアクション
CDISC Definition-J
調査中のデバイスに関して実行されるアクション。調査対象のデバイスである可能性も、そうでない可能性もあります。
NCI Preferred Term-J
デバイスで実行されたアクション

Domain
TR
Code
C135506
xxTESTCD
ACNDOREN
xxTEST
Absolute Change Nadir in Organ Enlarge
CDISC Synonym(s)
Absolute Change Nadir in Organ Enlarge; Absolute Change Nadir in Organ Enlargement
CDISC Definition
The current organ enlargement minus the lowest organ enlargement previously recorded. (NCI)
NCI Preferred Term
Absolute Change from Nadir in Organ Enlargement
xxTEST-J
臓器拡大における絶対変化最低点
CDISC Synonym(s)-J
臓器肥大の絶対変化最低点; 臓器肥大の絶対変化最低点
CDISC Definition-J
現在の臓器肥大から、これまで記録された臓器肥大の最低値を差し引いたもの。(NCI)
NCI Preferred Term-J
臓器肥大の最低値からの絶対変化

Domain
FA
Code
C163412
xxTESTCD
ACNSBJ
xxTEST
Action Taken With Subject
CDISC Synonym(s)
Action Taken With Subject
CDISC Definition
Action taken with respect to a subject in a study.
NCI Preferred Term
Action Taken With Subject
xxTEST-J
件名に対するアクション
CDISC Synonym(s)-J
件名に対するアクション
CDISC Definition-J
研究の対象に関して取られた行動。
NCI Preferred Term-J
件名に対するアクション

Domain
TR
Code
C112218
xxTESTCD
ACNSD
xxTEST
Absolute Change Nadir in Sum of Diam
CDISC Synonym(s)
Absolute Change Nadir in Sum of Diam
CDISC Definition
The current sum of diameters minus the lowest sum of diameters previously recorded.
NCI Preferred Term
Absolute Change From Nadir in Sum of Diameter
xxTEST-J
直径の合計における絶対変化の最低値
CDISC Synonym(s)-J
直径の合計における絶対変化の最低値
CDISC Definition-J
現在の直径の合計から、以前に記録された最小の直径の合計を引いたもの。
NCI Preferred Term-J
直径の合計における底からの絶対変化

Domain
TR
Code
C214747
xxTESTCD
ACNSPPD
xxTEST
Absolute Change Nadir in Sum of PPD
CDISC Synonym(s)
Absolute Change Nadir in Sum of PPD
CDISC Definition
The current sum of products of perpendicular diameters minus the lowest sum of products of perpendicular diameters previously recorded.
NCI Preferred Term
Absolute Change From Nadir in Sum of Products of Perpendicular Diameter
xxTEST-J
PPDの合計における絶対変化の最低値
CDISC Synonym(s)-J
PPDの合計における絶対変化の最低値
CDISC Definition-J
現在の垂直直径の積の合計から、以前に記録された垂直直径の積の合計の最小値を引いた値。
NCI Preferred Term-J
垂直直径の積の和における底点からの絶対変化

Domain
LB
Code
C80163
xxTESTCD
ACPHOS
xxTEST
Acid Phosphatase
CDISC Synonym(s)
Acid Phosphatase
CDISC Definition
A measurement of the acid phosphatase in a biological specimen.
NCI Preferred Term
Acid Phosphatase Measurement
xxTEST-J
酸性ホスファターゼ
CDISC Synonym(s)-J
酸性ホスファターゼ
CDISC Definition-J
生物標本中の酸性ホスファターゼの測定。
NCI Preferred Term-J
酸性ホスファターゼ測定

Domain
TR
Code
C147488
xxTESTCD
ACPPDNLD
xxTEST
Absolute Change From PPD Nadir in LDIAM
CDISC Synonym(s)
Absolute Change From PPD Nadir in LDIAM
CDISC Definition
The absolute change (positive or negative) in the longest diameter of the lesion from the timepoint at which the product of perpendicular diameters of the lesion is the smallest.
NCI Preferred Term
Absolute Change in Longest Diameter From Nadir Product of Perpendicular Diameters Timepoint
xxTEST-J
LDIAMにおけるPPD最低値からの絶対変化
CDISC Synonym(s)-J
LDIAMにおけるPPD最低値からの絶対変化
CDISC Definition-J
病変の垂直直径の積が最小となる時点からの病変の最長直径の絶対変化（正または負）。
NCI Preferred Term-J
垂直直径の底積からの最長直径の絶対変化時点

Domain
TR
Code
C147489
xxTESTCD
ACPPDNLP
xxTEST
Absolute Change From PPD Nadir in LPERP
CDISC Synonym(s)
Absolute Change From PPD Nadir in LPERP
CDISC Definition
The absolute change (positive or negative) in the longest perpendicular of the lesion from the timepoint at which the product of perpendicular diameters of the lesion is the smallest.
NCI Preferred Term
Absolute Change in Longest Perpendicular from Nadir Product of Perpendicular Diameters Timepoint
xxTEST-J
LPERPにおけるPPD最低値からの絶対変化
CDISC Synonym(s)-J
LPERPにおけるPPD最低値からの絶対変化
CDISC Definition-J
病変の垂線直径の積が最小となる時点からの、病変の最長垂線における絶対変化（正または負）。
NCI Preferred Term-J
最長垂線の絶対変化（垂線直径の天底積から時点）

Domain
CV
Code
C139033
xxTESTCD
ACRCTIND
xxTEST
Aortic Coarctation Indicator
CDISC Synonym(s)
Aortic Coarctation Indicator
CDISC Definition
An indication as to whether there is coarctation of the aorta.
NCI Preferred Term
Aortic Coarctation Indicator
xxTEST-J
大動脈縮窄症指標
CDISC Synonym(s)-J
大動脈縮窄症指標
CDISC Definition-J
大動脈狭窄があるかどうかを示します。
NCI Preferred Term-J
大動脈縮窄症指標

Domain
CV
Code
C139037
xxTESTCD
ACRCTSEV
xxTEST
Aortic Coarctation Severity
CDISC Synonym(s)
Aortic Coarctation Severity
CDISC Definition
The assessment of the severity of aortic coarctation.
NCI Preferred Term
Aortic Coarctation Severity
xxTEST-J
大動脈狭窄症の重症度
CDISC Synonym(s)-J
大動脈狭窄症の重症度
CDISC Definition-J
大動脈縮窄症の重症度の評価。
NCI Preferred Term-J
大動脈狭窄症の重症度

Domain
PT
Code
C210263
xxTESTCD
ACRLAMID
xxTEST
Acrylamide
CDISC Synonym(s)
Acrylamide
CDISC Definition
A measurement of the acrylamide in a specimen.
NCI Preferred Term
Acrylamide Measurement
xxTEST-J
アクリルアミド
CDISC Synonym(s)-J
アクリルアミド
CDISC Definition-J
標本中のアクリルアミドの測定。
NCI Preferred Term-J
アクリルアミド測定

Domain
LB
Code
C147289
xxTESTCD
ACRNCRNF
xxTEST
Acylcarnitine/Carnitine, Free
CDISC Synonym(s)
Acylcarnitine/Carnitine, Free
CDISC Definition
A relative measurement (ratio or percentage) of the acylcarnitine to free carnitine in a biological specimen.
NCI Preferred Term
Acylcarnitine to Free Carnitine Ratio Measurement
xxTEST-J
アシルカルニチン/カルニチン、遊離
CDISC Synonym(s)-J
アシルカルニチン/カルニチン、遊離
CDISC Definition-J
生物学的標本中のアシルカルニチンと遊離カルニチンの相対的な測定値（比率またはパーセンテージ）。
NCI Preferred Term-J
アシルカルニチンと遊離カルニチンの比率測定

Domain
LB
Code
C204643
xxTESTCD
ACROLEIN
xxTEST
Acrolein
CDISC Synonym(s)
Acrolein
CDISC Definition
A measurement of the acrolein in a specimen.
NCI Preferred Term
Acrolein Measurement
xxTEST-J
アクロレイン
CDISC Synonym(s)-J
アクロレイン
CDISC Definition-J
標本中のアクロレインの測定。
NCI Preferred Term-J
アクロレイン測定

Domain
PT
Code
C204643
xxTESTCD
ACROLEIN
xxTEST
Acrolein
CDISC Synonym(s)
Acrolein
CDISC Definition
A measurement of the acrolein in a specimen.
NCI Preferred Term
Acrolein Measurement
xxTEST-J
アクロレイン
CDISC Synonym(s)-J
アクロレイン
CDISC Definition-J
標本中のアクロレインの測定。
NCI Preferred Term-J
アクロレイン測定

Domain
LB
Code
C204644
xxTESTCD
ACRYNTRL
xxTEST
Acrylonitrile
CDISC Synonym(s)
Acrylonitrile
CDISC Definition
A measurement of the acrylonitrile in a specimen.
NCI Preferred Term
Acrylonitrile Measurement
xxTEST-J
アクリロニトリル
CDISC Synonym(s)-J
アクリロニトリル
CDISC Definition-J
試料中のアクリロニトリルの測定。
NCI Preferred Term-J
アクリロニトリル測定

Domain
PT
Code
C204644
xxTESTCD
ACRYNTRL
xxTEST
Acrylonitrile
CDISC Synonym(s)
Acrylonitrile
CDISC Definition
A measurement of the acrylonitrile in a specimen.
NCI Preferred Term
Acrylonitrile Measurement
xxTEST-J
アクリロニトリル
CDISC Synonym(s)-J
アクリロニトリル
CDISC Definition-J
試料中のアクリロニトリルの測定。
NCI Preferred Term-J
アクリロニトリル測定

Domain
LB
Code
C189522
xxTESTCD
ACSPGM
xxTEST
Acid Sphingomyelinase
CDISC Synonym(s)
Acid Sphingomyelinase
CDISC Definition
A measurement of the acid sphingomyelinase in a biological specimen.
NCI Preferred Term
Sphingomyelin Phosphodiesterase Measurement
xxTEST-J
酸性スフィンゴミエリナーゼ
CDISC Synonym(s)-J
酸性スフィンゴミエリナーゼ
CDISC Definition-J
生物標本中の酸性スフィンゴミエリナーゼの測定。
NCI Preferred Term-J
スフィンゴミエリンホスホジエステラーゼ測定

Domain
LB
Code
C103348
xxTESTCD
ACT
xxTEST
Activated Coagulation Time
CDISC Synonym(s)
Activated Clotting Time; Activated Coagulation Time
CDISC Definition
A measurement of the inhibition of blood coagulation in response to anticoagulant therapies.
NCI Preferred Term
Activated Coagulation Time
xxTEST-J
活性化凝固時間
CDISC Synonym(s)-J
活性化凝固時間; 活性化凝固時間
CDISC Definition-J
抗凝固療法に対する血液凝固の阻害の測定。
NCI Preferred Term-J
活性化凝固時間

Domain
LB
Code
C189521
xxTESTCD
ACTACEXR
xxTEST
Acetoacetic Acid Excretion Rate
CDISC Synonym(s)
Acetoacetate Excretion Rate; Acetoacetic Acid Excretion Rate
CDISC Definition
A measurement of the amount of acetoacetic acid being excreted in a biological specimen over a defined period of time (e.g. one hour).
NCI Preferred Term
Acetoacetic Acid Excretion Rate Measurement
xxTEST-J
アセト酢酸排泄率
CDISC Synonym(s)-J
アセト酢酸排泄率; アセト酢酸排泄率
CDISC Definition-J
定義された期間（例：1 時間）にわたって生物学的標本中に排出されるアセト酢酸の量を測定します。
NCI Preferred Term-J
アセト酢酸排泄率測定

Domain
LB
Code
C204642
xxTESTCD
ACTALD
xxTEST
Acetaldehyde
CDISC Synonym(s)
Acetaldehyde
CDISC Definition
A measurement of the acetaldehyde in a specimen.
NCI Preferred Term
Acetaldehyde Measurement
xxTEST-J
アセトアルデヒド
CDISC Synonym(s)-J
アセトアルデヒド
CDISC Definition-J
検体中のアセトアルデヒドの測定。
NCI Preferred Term-J
アセトアルデヒド測定

Domain
PT
Code
C204642
xxTESTCD
ACTALD
xxTEST
Acetaldehyde
CDISC Synonym(s)
Acetaldehyde
CDISC Definition
A measurement of the acetaldehyde in a specimen.
NCI Preferred Term
Acetaldehyde Measurement
xxTEST-J
アセトアルデヒド
CDISC Synonym(s)-J
アセトアルデヒド
CDISC Definition-J
検体中のアセトアルデヒドの測定。
NCI Preferred Term-J
アセトアルデヒド測定

Domain
LB
Code
C184510
xxTESTCD
ACTB
xxTEST
Beta-Actin
CDISC Synonym(s)
Actin Beta; B-Actin; Beta-Actin
CDISC Definition
A measurement of the beta-actin in a biological specimen.
NCI Preferred Term
Beta-Actin Measurement
xxTEST-J
ベータアクチン
CDISC Synonym(s)-J
アクチンベータ; B-アクチン; ベータ-アクチン
CDISC Definition-J
生物標本中のベータアクチンの測定。
NCI Preferred Term-J
ベータアクチン測定

Domain
LB
Code
C74780
xxTESTCD
ACTH
xxTEST
Adrenocorticotropic Hormone
CDISC Synonym(s)
Adrenocorticotropic Hormone; Corticotropin
CDISC Definition
A measurement of the adrenocorticotropic hormone in a biological specimen.
NCI Preferred Term
Adrenocorticotropic Hormone Measurement
xxTEST-J
副腎皮質刺激ホルモン
CDISC Synonym(s)-J
副腎皮質刺激ホルモン; コルチコトロピン
CDISC Definition-J
生物学的標本中の副腎皮質刺激ホルモンの測定。
NCI Preferred Term-J
副腎皮質刺激ホルモン測定

Domain
PT
Code
C210264
xxTESTCD
ACTPROPN
xxTEST
Acetyl Propionyl
CDISC Synonym(s)
2,3-Pentanedione; Acetyl propionyl; Acetylpropionyl
CDISC Definition
A measurement of the acetyl propionyl in a specimen.
NCI Preferred Term
Acetyl Propionyl Measurement
xxTEST-J
アセチルプロピオニル
CDISC Synonym(s)-J
2,3-ペンタンジオン; アセチルプロピオニル; アセチルプロピオニル
CDISC Definition-J
標本中のアセチルプロピオニルの測定。
NCI Preferred Term-J
アセチルプロピオニル測定

Domain
LB
Code
C202385
xxTESTCD
ACTVNA
xxTEST
Activin A
CDISC Synonym(s)
Activin A
CDISC Definition
A measurement of the activin A (a homodimer consisting of Inhibin Subunit Beta A) in a biological specimen.
NCI Preferred Term
Activin A Measurement
xxTEST-J
アクチビンA
CDISC Synonym(s)-J
アクチビンA
CDISC Definition-J
生物標本中のアクチビン A (インヒビンサブユニットベータ A からなるホモ二量体) の測定。
NCI Preferred Term-J
アクチビンA測定

Domain
LB
Code
C202386
xxTESTCD
ACTVNAB
xxTEST
Activin AB
CDISC Synonym(s)
Activin AB
CDISC Definition
A measurement of the activin AB (a heterodimer consisting of Inhibin Subunit Beta A and Inhibin Subunit Beta B) in a biological specimen.
NCI Preferred Term
Activin AB Measurement
xxTEST-J
アクチビンAB
CDISC Synonym(s)-J
アクチビンAB
CDISC Definition-J
生物標本中のアクチビン AB (インヒビン サブユニット ベータ A とインヒビン サブユニット ベータ B からなるヘテロダイマー) の測定。
NCI Preferred Term-J
アクチビンAB測定

Domain
LB
Code
C202387
xxTESTCD
ACTVNB
xxTEST
Activin B
CDISC Synonym(s)
Activin B
CDISC Definition
A measurement of the activin B (a homodimer consisting of Inhibin Subunit Beta B) in a biological specimen.
NCI Preferred Term
Activin B Measurement
xxTEST-J
アクチビンB
CDISC Synonym(s)-J
アクチビンB
CDISC Definition-J
生物標本中のアクチビン B (インヒビンサブユニットベータ B からなるホモダイマー) の測定。
NCI Preferred Term-J
アクチビンB測定

Domain
FA
Code
C124437
xxTESTCD
ACUTSTRS
xxTEST
Most Severe Acute Stressor
CDISC Synonym(s)
Most Severe Acute Stressor
CDISC Definition
The agent, stimulus, activity, or event that causes stress with an acute frequency, which has the highest level of severity.
NCI Preferred Term
Most Severe Acute Stressor
xxTEST-J
最も深刻な急性ストレス要因
CDISC Synonym(s)-J
最も深刻な急性ストレス要因
CDISC Definition-J
最も深刻なレベルの急性頻度でストレスを引き起こす原因、刺激、活動、またはイベント。
NCI Preferred Term-J
最も深刻な急性ストレス要因

Domain
LB
Code
C156535
xxTESTCD
ACYCRNTN
xxTEST
Acylcarnitine
CDISC Synonym(s)
Acylcarnitine
CDISC Definition
A measurement of the acylcarnitine in a biological specimen.
NCI Preferred Term
Acylcarnitine Measurement
xxTEST-J
アシルカルニチン
CDISC Synonym(s)-J
アシルカルニチン
CDISC Definition-J
生物標本中のアシルカルニチンの測定。
NCI Preferred Term-J
アシルカルニチン測定

Domain
LB
Code
C156534
xxTESTCD
ACYGLYCN
xxTEST
Acylglycine
CDISC Synonym(s)
Acylglycine
CDISC Definition
A measurement of the acylglycine in a biological specimen.
NCI Preferred Term
Acylglycine Measurement
xxTEST-J
アシルグリシン
CDISC Synonym(s)-J
アシルグリシン
CDISC Definition-J
生物標本中のアシルグリシンの測定。
NCI Preferred Term-J
アシルグリシン測定

Domain
LB
Code
C92286
xxTESTCD
ACYLCAOX
xxTEST
Acyl Coenzyme A Oxidase
CDISC Synonym(s)
Acyl CoA Oxidase; Acyl Coenzyme A Oxidase; Fatty Acyl Coenzyme A Oxidase
CDISC Definition
A measurement of the acyl coenzyme A oxidase in a biological specimen.
NCI Preferred Term
Acyl Coenzyme A Oxidase Measurement
xxTEST-J
アシルコエンザイムAオキシダーゼ
CDISC Synonym(s)-J
アシルCoAオキシダーゼ; アシルコエンザイムAオキシダーゼ; 脂肪酸アシルコエンザイムAオキシダーゼ
CDISC Definition-J
生物標本中のアシルコエンザイムAオキシダーゼの測定。
NCI Preferred Term-J
アシルコエンザイムAオキシダーゼ測定

Domain
IS
Code
C147272
xxTESTCD
ADA_BAB
xxTEST
Binding Antidrug Antibody
CDISC Synonym(s)
Binding Antidrug Antibody
CDISC Definition
A measurement of the binding antidrug antibody in a biological specimen. A binding antidrug antibody is an antibody that binds to a test article, and/or portion(s) of the test article.
NCI Preferred Term
Binding Antidrug Antibody Measurement
xxTEST-J
結合抗薬物抗体
CDISC Synonym(s)-J
結合抗薬物抗体
CDISC Definition-J
生物学的検体中の結合抗薬物抗体の測定。結合抗薬物抗体とは、試験物質、および／または試験物質の一部に結合する抗体です。
NCI Preferred Term-J
結合抗薬物抗体測定

Domain
IS
Code
C147273
xxTESTCD
ADA_NAB
xxTEST
Neutralizing Binding Antidrug Antibody
CDISC Synonym(s)
Neutralizing Binding Antidrug Antibody
CDISC Definition
A measurement of the neutralizing binding antidrug antibody in a biological specimen. A neutralizing binding antidrug antibody is a type of ADA that binds to the functional portion of a test article leading to diminished or negated pharmacological activit
NCI Preferred Term
Neutralizing Binding Antidrug Antibody Measurement
xxTEST-J
中和結合抗薬物抗体
CDISC Synonym(s)-J
中和結合抗薬物抗体
CDISC Definition-J
生物学的標本中の中和結合抗薬物抗体の測定。中和結合抗薬物抗体はADAの一種で、試験物質の機能部位に結合し、薬理活性を減弱または無効化する。
NCI Preferred Term-J
中和結合抗薬物抗体測定

Domain
IS
Code
C147274
xxTESTCD
ADA_NX
xxTEST
Neutraliz Cross-React Bind Antidrug AB
CDISC Synonym(s)
Neutraliz Cross-React Bind Antidrug AB; Neutralizing Cross-Reactive Binding Antidrug Antibody
CDISC Definition
A measurement of the neutralizing cross-reactive binding antidrug antibody in a biological specimen. A neutralizing cross-reactive binding antidrug antibody is a type of ADA that binds to an endogenous molecule that is structurally similar to an analogue
NCI Preferred Term
Neutralizing Cross-Reacting Binding Antidrug Antibody Measurement
xxTEST-J
中和交差反応結合抗薬物AB
CDISC Synonym(s)-J
中和交差反応結合抗薬物AB; 中和交差反応結合抗薬物抗体
CDISC Definition-J
生物学的検体中の中和交差反応性結合抗薬物抗体の測定。中和交差反応性結合抗薬物抗体は、類似体と構造的に類似した内因性分子に結合するADAの一種である。
NCI Preferred Term-J
中和交差反応結合抗薬物抗体測定

Domain
IS
Code
C147275
xxTESTCD
ADA_X
xxTEST
Cross-Reactive Binding Antidrug Antibody
CDISC Synonym(s)
Cross-Reactive Binding Antidrug Antibody
CDISC Definition
A measurement of the cross-reactive binding antidrug antibody in a biological specimen. A cross-reactive binding antidrug antibody is a type of ADA that binds to the endogenous molecule that is structurally similar to an analogue test article.
NCI Preferred Term
Cross-Reactive Binding Antidrug Antibody Measurement
xxTEST-J
交差反応性結合抗薬物抗体
CDISC Synonym(s)-J
交差反応性結合抗薬物抗体
CDISC Definition-J
生物学的検体中の交差反応性結合抗薬物抗体の測定。交差反応性結合抗薬物抗体は、類似試験物質と構造的に類似する内因性分子に結合するADAの一種です。
NCI Preferred Term-J
交差反応性結合抗薬物抗体測定

Domain
LB
Code
C147290
xxTESTCD
ADAM8
xxTEST
ADAM Metallopeptidase Domain 8
CDISC Synonym(s)
A Disintegrin And Metalloproteinase Domain 8; ADAM Metallopeptidase Domain 8; Soluble CD156a
CDISC Definition
A measurement of the ADAM metallopeptidase domain 8 protein in a biological specimen.
NCI Preferred Term
ADAM Metallopeptidase Domain 8 Measurement
xxTEST-J
ADAMメタロペプチダーゼドメイン8
CDISC Synonym(s)-J
ディスインテグリンおよびメタロプロテアーゼドメイン8; ADAMメタロペプチダーゼドメイン8; 可溶性CD156a
CDISC Definition-J
生物標本中の ADAM メタロペプチダーゼ ドメイン 8 タンパク質の測定。
NCI Preferred Term-J
ADAMメタロペプチダーゼドメイン8の測定

Domain
LB
Code
C187684
xxTESTCD
ADAMTS13
xxTEST
ADAMTS13
CDISC Synonym(s)
A Disintegrin-Like And Metalloprotease (Reprolysin Type) With Thrombospondin Type 1 Motif, 13; ADAM Metallopeptidase With Thrombospondin Type 1 Motif 13; von Willebrand Coagulation Factor Cleaving Protease ADAMTS13
CDISC Definition
A measurement of the von Willebrand coagulation factor cleaving protease, ADAMTS13, in a biological specimen.
NCI Preferred Term
von Willebrand Coagulation Factor Cleaving Protease Measurement
xxTEST-J
ADAMTS13
CDISC Synonym(s)-J
トロンボスポンジン1型モチーフ13を有するディスインテグリン様メタロプロテアーゼ（リプロリジン型）；トロンボスポンジン1型モチーフ13を有するADAMメタロペプチダーゼ；フォン・ヴィレブランド凝固因子切断プロテアーゼADAMTS13
CDISC Definition-J
生物標本中のフォン・ヴィレブランド凝固因子切断プロテアーゼ、ADAMTS13 の測定。
NCI Preferred Term-J
フォン・ヴィレブランド凝固因子切断プロテアーゼ測定

Domain
IS
Code
C181362
xxTESTCD
ADBIGA
xxTEST
Binding Antidrug IgA Antibody
CDISC Synonym(s)
Binding Antidrug IgA Antibody
CDISC Definition
A measurement of the binding antidrug IgA antibody in a biological specimen.
NCI Preferred Term
Binding Antidrug IgA Antibody Measurement
xxTEST-J
結合抗薬物IgA抗体
CDISC Synonym(s)-J
結合抗薬物IgA抗体
CDISC Definition-J
生物学的標本中の結合抗薬物 IgA 抗体の測定。
NCI Preferred Term-J
結合抗薬物IgA抗体測定

Domain
IS
Code
C181363
xxTESTCD
ADBIGE
xxTEST
Binding Antidrug IgE Antibody
CDISC Synonym(s)
Binding Antidrug IgE Antibody
CDISC Definition
A measurement of the binding antidrug IgE antibody in a biological specimen.
NCI Preferred Term
Binding Antidrug IgE Antibody Measurement
xxTEST-J
結合抗薬物IgE抗体
CDISC Synonym(s)-J
結合抗薬物IgE抗体
CDISC Definition-J
生物学的標本中の結合抗薬物 IgE 抗体の測定。
NCI Preferred Term-J
結合抗薬物IgE抗体測定

Domain
IS
Code
C181188
xxTESTCD
ADBIGG
xxTEST
Binding Antidrug IgG Antibody
CDISC Synonym(s)
Binding Antidrug IgG Antibody
CDISC Definition
A measurement of the binding antidrug IgG antibody in a biological specimen.
NCI Preferred Term
Binding Antidrug IgG Antibody Measurement
xxTEST-J
結合抗薬物IgG抗体
CDISC Synonym(s)-J
結合抗薬物IgG抗体
CDISC Definition-J
生物学的標本中の結合抗薬物 IgG 抗体の測定。
NCI Preferred Term-J
結合抗薬物IgG抗体測定

Domain
IS
Code
C181366
xxTESTCD
ADBIGG1
xxTEST
Binding Antidrug IgG1 Antibody
CDISC Synonym(s)
Binding Antidrug IgG1 Antibody
CDISC Definition
A measurement of the binding antidrug IgG1 antibody in a biological specimen.
NCI Preferred Term
Binding Antidrug IgG1 Antibody Measurement
xxTEST-J
結合抗薬物IgG1抗体
CDISC Synonym(s)-J
結合抗薬物IgG1抗体
CDISC Definition-J
生物学的標本中の結合抗薬物 IgG1 抗体の測定。
NCI Preferred Term-J
結合抗薬物IgG1抗体測定

Domain
IS
Code
C181367
xxTESTCD
ADBIGG2
xxTEST
Binding Antidrug IgG2 Antibody
CDISC Synonym(s)
Binding Antidrug IgG2 Antibody
CDISC Definition
A measurement of the binding antidrug IgG2 antibody in a biological specimen.
NCI Preferred Term
Binding Antidrug IgG2 Antibody Measurement
xxTEST-J
結合抗薬物IgG2抗体
CDISC Synonym(s)-J
結合抗薬物IgG2抗体
CDISC Definition-J
生物学的標本中の結合抗薬物 IgG2 抗体の測定。
NCI Preferred Term-J
結合抗薬物IgG2抗体測定

Domain
IS
Code
C181368
xxTESTCD
ADBIGG3
xxTEST
Binding Antidrug IgG3 Antibody
CDISC Synonym(s)
Binding Antidrug IgG3 Antibody
CDISC Definition
A measurement of the binding antidrug IgG3 antibody in a biological specimen.
NCI Preferred Term
Binding Antidrug IgG3 Antibody Measurement
xxTEST-J
結合抗薬物IgG3抗体
CDISC Synonym(s)-J
結合抗薬物IgG3抗体
CDISC Definition-J
生物学的標本中の結合抗薬物 IgG3 抗体の測定。
NCI Preferred Term-J
結合抗薬物IgG3抗体測定

Domain
IS
Code
C181369
xxTESTCD
ADBIGG4
xxTEST
Binding Antidrug IgG4 Antibody
CDISC Synonym(s)
Binding Antidrug IgG4 Antibody
CDISC Definition
A measurement of the binding antidrug IgG4 antibody in a biological specimen.
NCI Preferred Term
Binding Antidrug IgG4 Antibody Measurement
xxTEST-J
結合抗薬物IgG4抗体
CDISC Synonym(s)-J
結合抗薬物IgG4抗体
CDISC Definition-J
生物学的標本中の結合抗薬物 IgG4 抗体の測定。
NCI Preferred Term-J
結合抗薬物IgG4抗体測定

Domain
IS
Code
C181365
xxTESTCD
ADBIGGM
xxTEST
Binding Antidrug IgG/IgM Antibody
CDISC Synonym(s)
Binding Antidrug IgG/IgM Antibody
CDISC Definition
A measurement of the binding antidrug IgG and/or IgM antibody in a biological specimen.
NCI Preferred Term
Binding Antidrug IgG/IgM Antibody Measurement
xxTEST-J
結合抗薬物IgG/IgM抗体
CDISC Synonym(s)-J
結合抗薬物IgG/IgM抗体
CDISC Definition-J
生物学的標本中の結合抗薬物 IgG 抗体および/または IgM 抗体の測定。
NCI Preferred Term-J
結合抗薬物IgG/IgM抗体測定

Domain
IS
Code
C181364
xxTESTCD
ADBIGM
xxTEST
Binding Antidrug IgM Antibody
CDISC Synonym(s)
Binding Antidrug IgM Antibody
CDISC Definition
A measurement of the binding antidrug IgM antibody in a biological specimen.
NCI Preferred Term
Binding Antidrug IgM Antibody Measurement
xxTEST-J
結合抗薬物IgM抗体
CDISC Synonym(s)-J
結合抗薬物IgM抗体
CDISC Definition-J
生物学的標本中の結合抗薬物 IgM 抗体の測定。
NCI Preferred Term-J
結合抗薬物IgM抗体測定

Domain
LB
Code
C184529
xxTESTCD
ADBPNCA
xxTEST
ADB-PINACA
CDISC Synonym(s)
ADB-PINACA
CDISC Definition
A measurement of the synthetic cannabinoid ADB-PINACA in a biological specimen.
NCI Preferred Term
ADB-PINACA Measurement
xxTEST-J
ADB-PINACA
CDISC Synonym(s)-J
ADB-PINACA
CDISC Definition-J
生物標本中の合成カンナビノイド ADB-PINACA の測定。
NCI Preferred Term-J
ADB-PINACA測定

Domain
IS
Code
C181378
xxTESTCD
ADBXIGA
xxTEST
Cross-Reactive Binding Antidrug IgA AB
CDISC Synonym(s)
Cross-Reactive Binding Antidrug IgA AB; Cross-Reactive Binding Antidrug IgA Antibody
CDISC Definition
A measurement of the cross-reactive binding antidrug IgA antibody in a biological specimen.
NCI Preferred Term
Cross-Reactive Binding Antidrug IgA Antibody Measurement
xxTEST-J
交差反応性結合抗薬物IgA AB
CDISC Synonym(s)-J
交差反応性結合抗薬物IgA AB; 交差反応性結合抗薬物IgA抗体
CDISC Definition-J
生物学的標本中の交差反応性結合抗薬物 IgA 抗体の測定。
NCI Preferred Term-J
交差反応性結合抗薬物IgA抗体測定

Domain
IS
Code
C181379
xxTESTCD
ADBXIGE
xxTEST
Cross-Reactive Binding Antidrug IgE AB
CDISC Synonym(s)
Cross-Reactive Binding Antidrug IgE AB; Cross-Reactive Binding Antidrug IgE Antibody
CDISC Definition
A measurement of the cross-reactive binding antidrug IgE antibody in a biological specimen.
NCI Preferred Term
Cross-Reactive Binding Antidrug IgE Antibody Measurement
xxTEST-J
交差反応性結合抗薬物IgE AB
CDISC Synonym(s)-J
交差反応性結合抗薬物IgE AB; 交差反応性結合抗薬物IgE抗体
CDISC Definition-J
生物学的標本中の交差反応性結合抗薬物 IgE 抗体の測定。
NCI Preferred Term-J
交差反応性結合抗薬物IgE抗体測定

Domain
IS
Code
C181190
xxTESTCD
ADBXIGG
xxTEST
Cross-Reactive Binding Antidrug IgG AB
CDISC Synonym(s)
Cross-Reactive Binding Antidrug IgG AB; Cross-Reactive Binding Antidrug IgG Antibody
CDISC Definition
A measurement of the cross-reactive binding antidrug IgG antibody in a biological specimen.
NCI Preferred Term
Cross-Reactive Binding Antidrug IgG Antibody Measurement
xxTEST-J
交差反応性結合抗薬物IgG AB
CDISC Synonym(s)-J
交差反応性結合抗薬物IgG AB; 交差反応性結合抗薬物IgG抗体
CDISC Definition-J
生物学的標本中の交差反応性結合抗薬物 IgG 抗体の測定。
NCI Preferred Term-J
交差反応性結合抗薬物IgG抗体測定

Domain
IS
Code
C181382
xxTESTCD
ADBXIGG1
xxTEST
Cross-Reactive Binding Antidrug IgG1 AB
CDISC Synonym(s)
Cross-Reactive Binding Antidrug IgG1 AB; Cross-Reactive Binding Antidrug IgG1 Antibody
CDISC Definition
A measurement of the cross-reactive binding antidrug IgG1 antibody in a biological specimen.
NCI Preferred Term
Cross-Reactive Binding Antidrug IgG1 Antibody Measurement
xxTEST-J
交差反応性結合抗薬物IgG1 AB
CDISC Synonym(s)-J
交差反応性結合抗薬物IgG1 AB; 交差反応性結合抗薬物IgG1抗体
CDISC Definition-J
生物学的標本中の交差反応性結合抗薬物 IgG1 抗体の測定。
NCI Preferred Term-J
交差反応性結合抗薬物IgG1抗体測定

Domain
IS
Code
C181383
xxTESTCD
ADBXIGG2
xxTEST
Cross-Reactive Binding Antidrug IgG2 AB
CDISC Synonym(s)
Cross-Reactive Binding Antidrug IgG2 AB; Cross-Reactive Binding Antidrug IgG2 Antibody
CDISC Definition
A measurement of the cross-reactive binding antidrug IgG2 antibody in a biological specimen.
NCI Preferred Term
Cross-Reactive Binding Antidrug IgG2 Antibody Measurement
xxTEST-J
交差反応性結合抗薬物IgG2 AB
CDISC Synonym(s)-J
交差反応性結合抗薬物IgG2 AB; 交差反応性結合抗薬物IgG2抗体
CDISC Definition-J
生物学的標本中の交差反応性結合抗薬物 IgG2 抗体の測定。
NCI Preferred Term-J
交差反応性結合抗薬物IgG2抗体測定

Domain
IS
Code
C181384
xxTESTCD
ADBXIGG3
xxTEST
Cross-Reactive Binding Antidrug IgG3 AB
CDISC Synonym(s)
Cross-Reactive Binding Antidrug IgG3 AB; Cross-Reactive Binding Antidrug IgG3 Antibody
CDISC Definition
A measurement of the cross-reactive binding antidrug IgG3 antibody in a biological specimen.
NCI Preferred Term
Cross-Reactive Binding Antidrug IgG3 Antibody Measurement
xxTEST-J
交差反応性結合抗薬物IgG3 AB
CDISC Synonym(s)-J
交差反応性結合抗薬物IgG3 AB; 交差反応性結合抗薬物IgG3抗体
CDISC Definition-J
生物学的標本中の交差反応性結合抗薬物 IgG3 抗体の測定。
NCI Preferred Term-J
交差反応性結合抗薬物IgG3抗体測定

Domain
IS
Code
C181385
xxTESTCD
ADBXIGG4
xxTEST
Cross-Reactive Binding Antidrug IgG4 AB
CDISC Synonym(s)
Cross-Reactive Binding Antidrug IgG4 AB; Cross-Reactive Binding Antidrug IgG4 Antibody
CDISC Definition
A measurement of the cross-reactive binding antidrug IgG4 antibody in a biological specimen.
NCI Preferred Term
Cross-Reactive Binding Antidrug IgG4 Antibody Measurement
xxTEST-J
交差反応性結合抗薬物IgG4 AB
CDISC Synonym(s)-J
交差反応性結合抗薬物IgG4 AB; 交差反応性結合抗薬物IgG4抗体
CDISC Definition-J
生物学的標本中の交差反応性結合抗薬物 IgG4 抗体の測定。
NCI Preferred Term-J
交差反応性結合抗薬物IgG4抗体測定

Domain
IS
Code
C181381
xxTESTCD
ADBXIGGM
xxTEST
Cross-Reactive Binding ADA IgG/IgM
CDISC Synonym(s)
Cross-Reactive Binding ADA IgG/IgM; Cross-Reactive Binding Antidrug IgG/IgM Antibody
CDISC Definition
A measurement of the cross-reactive binding antidrug IgG and/or IgM antibody in a biological specimen.
NCI Preferred Term
Cross-Reactive Binding Antidrug Antibody IgG/IgM Measurement
xxTEST-J
交差反応性結合ADA IgG/IgM
CDISC Synonym(s)-J
交差反応性結合 ADA IgG/IgM; 交差反応性結合 抗薬物 IgG/IgM 抗体
CDISC Definition-J
生物学的標本中の交差反応性結合抗薬物 IgG および/または IgM 抗体の測定。
NCI Preferred Term-J
交差反応性結合抗薬物抗体IgG/IgM測定

Domain
IS
Code
C181380
xxTESTCD
ADBXIGM
xxTEST
Cross-Reactive Binding Antidrug IgM AB
CDISC Synonym(s)
Cross-Reactive Binding Antidrug IgM AB; Cross-Reactive Binding Antidrug IgM Antibody
CDISC Definition
A measurement of the cross-reactive binding antidrug IgM antibody in a biological specimen.
NCI Preferred Term
Cross-Reactive Binding Antidrug IgM Antibody Measurement
xxTEST-J
交差反応性結合抗薬物IgM AB
CDISC Synonym(s)-J
交差反応性結合抗薬物IgM AB; 交差反応性結合抗薬物IgM抗体
CDISC Definition-J
生物学的標本中の交差反応性結合抗薬物 IgM 抗体の測定。
NCI Preferred Term-J
交差反応性結合抗薬物IgM抗体測定

Domain
RE
Code
C189634
xxTESTCD
ADDRELF
xxTEST
Additional Disease-Related Findings
CDISC Synonym(s)
Additional Disease-Related Findings
CDISC Definition
A determination of additional abnormalities and/or other observations that may be associated with the disease of interest, for which a targeted test has not been identified in the data.
NCI Preferred Term
Additional Disease-Related Findings
xxTEST-J
追加の疾患関連所見
CDISC Synonym(s)-J
追加の疾患関連所見
CDISC Definition-J
データ内で対象検査が特定されていない、対象疾患に関連する可能性がある追加の異常および/またはその他の観察事項の判定。
NCI Preferred Term-J
追加の疾患関連所見

Domain
MB
Code
C154830
xxTESTCD
ADENOVAG
xxTEST
Adenovirus Antigen
CDISC Synonym(s)
Adenovirus Antigen
CDISC Definition
A measurement of the Adenovirus antigen in a biological specimen.
NCI Preferred Term
Adenovirus Antigen Measurement
xxTEST-J
アデノウイルス抗原
CDISC Synonym(s)-J
アデノウイルス抗原
CDISC Definition-J
生物標本中のアデノウイルス抗原の測定。
NCI Preferred Term-J
アデノウイルス抗原測定

Domain
MB
Code
C171498
xxTESTCD
ADENOVIR
xxTEST
Adenoviridae
CDISC Synonym(s)
Adenoviridae; Adenovirus
CDISC Definition
A measurement of the adenoviridae in a biological specimen.
NCI Preferred Term
Adenoviridae Measurement
xxTEST-J
アデノウイルス科
CDISC Synonym(s)-J
アデノウイルス科; アデノウイルス
CDISC Definition-J
生物標本中のアデノウイルスの測定。
NCI Preferred Term-J
アデノウイルス測定

Domain
SC
Code
C171499
xxTESTCD
ADEVAIND
xxTEST
Appropriate Developmental Age Indicator
CDISC Synonym(s)
Appropriate Development For Age Indicator; Appropriate Developmental Age Indicator
CDISC Definition
An indication as to whether the subject's chronological age matches their physical, emotional, social, and cognitive functioning.
NCI Preferred Term
Appropriate Developmental Age Indicator
xxTEST-J
適切な発達年齢指標
CDISC Synonym(s)-J
年齢に応じた適切な発達指標; 適切な発達年齢指標
CDISC Definition-J
被験者の実年齢が、身体的、感情的、社会的、認知的機能と一致しているかどうかを示します。
NCI Preferred Term-J
適切な発達年齢指標

Domain
LB
Code
C74847
xxTESTCD
ADH
xxTEST
Antidiuretic Hormone
CDISC Synonym(s)
Antidiuretic Hormone; Vasopressin
CDISC Definition
A measurement of the antidiuretic hormone in a biological specimen.
NCI Preferred Term
Antidiuretic Hormone Measurement
xxTEST-J
抗利尿ホルモン
CDISC Synonym(s)-J
抗利尿ホルモン；バソプレシン
CDISC Definition-J
生物学的標本中の抗利尿ホルモンの測定。
NCI Preferred Term-J
抗利尿ホルモン測定

Domain
RP
Code
C178050
xxTESTCD
ADLVRDTC
xxTEST
Actual Date of Delivery
CDISC Synonym(s)
Actual Date of Delivery
CDISC Definition
The date on which the delivery event occurred.
NCI Preferred Term
Actual Date of Delivery
xxTEST-J
実際の配達日
CDISC Synonym(s)-J
実際の配達日
CDISC Definition-J
配信イベントが発生した日付。
NCI Preferred Term-J
実際の配達日

Domain
LB
Code
C199910
xxTESTCD
ADM
xxTEST
Adrenomedullin
CDISC Synonym(s)
Adrenomedullin
CDISC Definition
A measurement of the adrenomedullin in a biological specimen.
NCI Preferred Term
Adrenomedullin Measurement
xxTEST-J
アドレノメデュリン
CDISC Synonym(s)-J
アドレノメデュリン
CDISC Definition-J
生物標本中の副腎皮質メデュリンの測定。
NCI Preferred Term-J
副腎皮質メデュリン測定

Domain
LB
Code
C158233
xxTESTCD
ADMA
xxTEST
Asymmetric Dimethylarginine
CDISC Synonym(s)
Asymmetric Dimethylarginine; N,N-dimethylarginine
CDISC Definition
A measurement of asymmetric dimethylarginine in a biological specimen.
NCI Preferred Term
Asymmetric Dimethylarginine Measurement
xxTEST-J
非対称ジメチルアルギニン
CDISC Synonym(s)-J
非対称ジメチルアルギニン; N,N-ジメチルアルギニン
CDISC Definition-J
生物標本中の非対称ジメチルアルギニンの測定。
NCI Preferred Term-J
非対称ジメチルアルギニン測定

Domain
LB
Code
C187830
xxTESTCD
ADMTS13A
xxTEST
ADAMTS13 Activity
CDISC Synonym(s)
A Disintegrin-Like And Metalloprotease (Reprolysin Type) With Thrombospondin Type 1 Motif, 13 Activity; ADAM Metallopeptidase With Thrombospondin Type 1 Motif 13 Activity; ADAMTS13 Activity; von Willebrand Coagulation Factor Cleaving Protease ADAMTS13 Act
CDISC Definition
A measurement of the biological activity of von Willebrand coagulation factor cleaving protease, ADAMTS13, in a biological specimen.
NCI Preferred Term
von Willebrand Coagulation Factor Cleaving Protease Activity Measurement
xxTEST-J
ADAMTS13活性
CDISC Synonym(s)-J
トロンボスポンジン1型モチーフ13活性を持つディスインテグリン様メタロプロテアーゼ（リプロリジン型）；トロンボスポンジン1型モチーフ13活性を持つADAMメタロペプチダーゼ；ADAMTS13活性；フォン・ヴィレブランド凝固因子切断プロテアーゼADAMTS13活性
CDISC Definition-J
生物標本中のフォン・ヴィレブランド凝固因子切断プロテアーゼ、ADAMTS13 の生物活性の測定。
NCI Preferred Term-J
フォン・ヴィレブランド凝固因子切断プロテアーゼ活性測定

Domain
IS
Code
C181370
xxTESTCD
ADNIGA
xxTEST
Neutralizing Binding Antidrug IgA AB
CDISC Synonym(s)
Neutralizing Binding Antidrug IgA AB; Neutralizing Binding Antidrug IgA Antibody
CDISC Definition
A measurement of the neutralizing binding antidrug IgA antibody in a biological specimen.
NCI Preferred Term
Neutralizing Binding Antidrug IgA Antibody Measurement
xxTEST-J
結合中和抗薬物 IgA AB
CDISC Synonym(s)-J
中和結合抗薬物IgA AB; 中和結合抗薬物IgA抗体
CDISC Definition-J
生物学的標本中の中和結合抗薬物 IgA 抗体の測定。
NCI Preferred Term-J
中和結合抗薬物IgA抗体測定

Domain
IS
Code
C181371
xxTESTCD
ADNIGE
xxTEST
Neutralizing Binding Antidrug IgE AB
CDISC Synonym(s)
Neutralizing Binding Antidrug IgE AB; Neutralizing Binding Antidrug IgE Antibody
CDISC Definition
A measurement of the neutralizing binding antidrug IgE antibody in a biological specimen.
NCI Preferred Term
Neutralizing Binding Antidrug IgE Antibody Measurement
xxTEST-J
中和結合抗薬物IgE AB
CDISC Synonym(s)-J
中和結合抗薬物IgE AB; 中和結合抗薬物IgE抗体
CDISC Definition-J
生物学的標本中の中和結合抗薬物 IgE 抗体の測定。
NCI Preferred Term-J
中和結合抗薬物IgE抗体測定

Domain
IS
Code
C181189
xxTESTCD
ADNIGG
xxTEST
Neutralizing Binding Antidrug IgG AB
CDISC Synonym(s)
Neutralizing Binding Antidrug IgG AB; Neutralizing Binding Antidrug IgG Antibody
CDISC Definition
A measurement of the neutralizing binding antidrug IgG antibody in a biological specimen.
NCI Preferred Term
Neutralizing Binding Antidrug IgG Antibody Measurement
xxTEST-J
中和結合抗薬物IgG AB
CDISC Synonym(s)-J
中和結合抗薬物IgG AB; 中和結合抗薬物IgG抗体
CDISC Definition-J
生物学的標本中の中和結合抗薬物 IgG 抗体の測定。
NCI Preferred Term-J
中和結合抗薬物IgG抗体測定

Domain
IS
Code
C181374
xxTESTCD
ADNIGG1
xxTEST
Neutralizing Binding Antidrug IgG1 AB
CDISC Synonym(s)
Neutralizing Binding Antidrug IgG1 AB; Neutralizing Binding Antidrug IgG1 Antibody
CDISC Definition
A measurement of the neutralizing binding antidrug IgG1 antibody in a biological specimen.
NCI Preferred Term
Neutralizing Binding Antidrug IgG1 Antibody Measurement
xxTEST-J
中和結合抗薬物IgG1 AB
CDISC Synonym(s)-J
中和結合抗薬物IgG1 AB; 中和結合抗薬物IgG1抗体
CDISC Definition-J
生物学的標本中の中和結合抗薬物 IgG1 抗体の測定。
NCI Preferred Term-J
中和結合抗薬物IgG1抗体測定

Domain
IS
Code
C181375
xxTESTCD
ADNIGG2
xxTEST
Neutralizing Binding Antidrug IgG2 AB
CDISC Synonym(s)
Neutralizing Binding Antidrug IgG2 AB; Neutralizing Binding Antidrug IgG2 Antibody
CDISC Definition
A measurement of the neutralizing binding antidrug IgG2 antibody in a biological specimen.
NCI Preferred Term
Neutralizing Binding Antidrug IgG2 Antibody Measurement
xxTEST-J
中和結合抗薬物IgG2 AB
CDISC Synonym(s)-J
中和結合抗薬物IgG2 AB; 中和結合抗薬物IgG2抗体
CDISC Definition-J
生物学的標本中の中和結合抗薬物 IgG2 抗体の測定。
NCI Preferred Term-J
中和結合抗薬物IgG2抗体測定

Domain
IS
Code
C181376
xxTESTCD
ADNIGG3
xxTEST
Neutralizing Binding Antidrug IgG3 AB
CDISC Synonym(s)
Neutralizing Binding Antidrug IgG3 AB; Neutralizing Binding Antidrug IgG3 Antibody
CDISC Definition
A measurement of the neutralizing binding antidrug IgG3 antibody in a biological specimen.
NCI Preferred Term
Neutralizing Binding Antidrug IgG3 Antibody Measurement
xxTEST-J
中和結合抗薬物IgG3 AB
CDISC Synonym(s)-J
中和結合抗薬物IgG3 AB; 中和結合抗薬物IgG3抗体
CDISC Definition-J
生物学的標本中の中和結合抗薬物 IgG3 抗体の測定。
NCI Preferred Term-J
中和結合抗薬物IgG3抗体測定

Domain
IS
Code
C181377
xxTESTCD
ADNIGG4
xxTEST
Neutralizing Binding Antidrug IgG4 AB
CDISC Synonym(s)
Neutralizing Binding Antidrug IgG4 AB; Neutralizing Binding Antidrug IgG4 Antibody
CDISC Definition
A measurement of the neutralizing binding antidrug IgG4 antibody in a biological specimen.
NCI Preferred Term
Neutralizing Binding Antidrug IgG4 Antibody Measurement
xxTEST-J
中和結合抗薬物IgG4 AB
CDISC Synonym(s)-J
中和結合抗薬物IgG4 AB; 中和結合抗薬物IgG4抗体
CDISC Definition-J
生物学的標本中の中和結合抗薬物 IgG4 抗体の測定。
NCI Preferred Term-J
中和結合抗薬物IgG4抗体測定

Domain
IS
Code
C181373
xxTESTCD
ADNIGGM
xxTEST
Neutralizing Binding Antidrug IgG/IgM AB
CDISC Synonym(s)
Neutralizing Binding Antidrug IgG/IgM AB
CDISC Definition
A measurement of the neutralizing binding antidrug IgG and/or IgM antibody in a biological specimen.
NCI Preferred Term
Neutralizing Binding Antidrug IgG/IgM Antibody Measurement
xxTEST-J
中和結合抗薬物IgG/IgM AB
CDISC Synonym(s)-J
中和結合抗薬物IgG/IgM AB
CDISC Definition-J
生物学的標本中の中和結合抗薬物 IgG 抗体および/または IgM 抗体の測定。
NCI Preferred Term-J
中和結合抗薬物IgG/IgM抗体測定

Domain
IS
Code
C181372
xxTESTCD
ADNIGM
xxTEST
Neutralizing Binding Antidrug IgM AB
CDISC Synonym(s)
Neutralizing Binding Antidrug IgM AB; Neutralizing Binding Antidrug IgM Antibody
CDISC Definition
A measurement of the neutralizing binding antidrug IgM antibody in a biological specimen.
NCI Preferred Term
Neutralizing Binding Antidrug IgM Antibody Measurement
xxTEST-J
中和結合抗薬物IgM AB
CDISC Synonym(s)-J
中和結合抗薬物IgM AB; 中和結合抗薬物IgM抗体
CDISC Definition-J
生物学的標本中の中和結合抗薬物 IgM 抗体の測定。
NCI Preferred Term-J
中和結合抗薬物IgM抗体測定

Domain
IS
Code
C181386
xxTESTCD
ADNXIGA
xxTEST
Neut Cross-Reactive Binding ADA IgA
CDISC Synonym(s)
Neut Cross-Reactive Binding ADA IgA; Neutralizing Cross-Reactive Binding Antidrug IgA Antibody
CDISC Definition
A measurement of the neutralizing cross-reactive binding antidrug IgA antibody in a biological specimen.
NCI Preferred Term
Neutralizing Cross-Reactive Binding Antidrug Antibody IgA Measurement
xxTEST-J
Neut交差反応性結合ADA IgA
CDISC Synonym(s)-J
中和交差反応性結合ADA IgA; 中和交差反応性結合抗薬物IgA抗体
CDISC Definition-J
生物学的標本中の中和交差反応性結合抗薬物 IgA 抗体の測定。
NCI Preferred Term-J
中和交差反応性結合抗薬物抗体IgA測定

Domain
IS
Code
C181387
xxTESTCD
ADNXIGE
xxTEST
Neut Cross-Reactive Binding ADA IgE
CDISC Synonym(s)
Neut Cross-Reactive Binding ADA IgE; Neutralizing Cross-Reactive Binding Antidrug IgE Antibody
CDISC Definition
A measurement of the neutralizing cross-reactive binding antidrug IgE antibody in a biological specimen.
NCI Preferred Term
Neutralizing Cross-Reactive Binding Antidrug Antibody IgE Measurement
xxTEST-J
Neut交差反応性結合ADA IgE
CDISC Synonym(s)-J
中和交差反応性結合ADA IgE; 中和交差反応性結合抗薬物IgE抗体
CDISC Definition-J
生物学的標本中の中和交差反応性結合抗薬物 IgE 抗体の測定。
NCI Preferred Term-J
中和交差反応性結合抗薬物抗体IgE測定

Domain
IS
Code
C181191
xxTESTCD
ADNXIGG
xxTEST
Neut Cross-Reactive Binding ADA IgG
CDISC Synonym(s)
Neut Cross-Reactive Binding ADA IgG; Neutralizing Cross-Reactive Binding Antidrug IgG Antibody
CDISC Definition
A measurement of the neutralizing cross-reactive binding antidrug IgG antibody in a biological specimen.
NCI Preferred Term
Neutralizing Cross-Reactive Binding Antidrug Antibody IgG Measurement
xxTEST-J
Neut交差反応性結合ADA IgG
CDISC Synonym(s)-J
中和交差反応性結合ADA IgG; 中和交差反応性結合抗薬物IgG抗体
CDISC Definition-J
生物学的標本中の中和交差反応性結合抗薬物 IgG 抗体の測定。
NCI Preferred Term-J
中和交差反応性結合抗薬物抗体IgG測定

Domain
IS
Code
C181390
xxTESTCD
ADNXIGG1
xxTEST
Neut Cross-Reactive Binding ADA IgG1
CDISC Synonym(s)
Neut Cross-Reactive Binding ADA IgG1; Neutralizing Cross-Reactive Binding Antidrug IgG1 Antibody
CDISC Definition
A measurement of the neutralizing cross-reactive binding antidrug IgG1 antibody in a biological specimen.
NCI Preferred Term
Neutralizing Cross-Reactive Binding Antidrug Antibody IgG1 Measurement
xxTEST-J
Neut交差反応性結合ADA IgG1
CDISC Synonym(s)-J
中和交差反応性結合ADA IgG1; 中和交差反応性結合抗薬物IgG1抗体
CDISC Definition-J
生物学的標本中の中和交差反応性結合抗薬物 IgG1 抗体の測定。
NCI Preferred Term-J
中和交差反応性結合抗薬物抗体IgG1測定

Domain
IS
Code
C181391
xxTESTCD
ADNXIGG2
xxTEST
Neut Cross-Reactive Binding ADA IgG2
CDISC Synonym(s)
Neut Cross-Reactive Binding ADA IgG2; Neutralizing Cross-Reactive Binding Antidrug IgG2 Antibody
CDISC Definition
A measurement of the neutralizing cross-reactive binding antidrug IgG2 antibody in a biological specimen.
NCI Preferred Term
Neutralizing Cross-Reactive Binding Antidrug Antibody IgG2 Measurement
xxTEST-J
Neut交差反応性結合ADA IgG2
CDISC Synonym(s)-J
中和交差反応性結合ADA IgG2; 中和交差反応性結合抗薬物IgG2抗体
CDISC Definition-J
生物学的標本中の中和交差反応性結合抗薬物 IgG2 抗体の測定。
NCI Preferred Term-J
中和交差反応性結合抗薬物抗体IgG2測定

Domain
IS
Code
C181392
xxTESTCD
ADNXIGG3
xxTEST
Neut Cross-Reactive Binding ADA IgG3
CDISC Synonym(s)
Neut Cross-Reactive Binding ADA IgG3; Neutralizing Cross-Reactive Binding Antidrug IgG3 Antibody
CDISC Definition
A measurement of the neutralizing cross-reactive binding antidrug IgG3 antibody in a biological specimen.
NCI Preferred Term
Neutralizing Cross-Reactive Binding Antidrug Antibody IgG3 Measurement
xxTEST-J
Neut交差反応性結合ADA IgG3
CDISC Synonym(s)-J
中和交差反応性結合ADA IgG3; 中和交差反応性結合抗薬物IgG3抗体
CDISC Definition-J
生物学的標本中の中和交差反応性結合抗薬物 IgG3 抗体の測定。
NCI Preferred Term-J
中和交差反応性結合抗薬物抗体IgG3測定

Domain
IS
Code
C181393
xxTESTCD
ADNXIGG4
xxTEST
Neut Cross-Reactive Binding ADA IgG4
CDISC Synonym(s)
Neut Cross-Reactive Binding ADA IgG4; Neutralizing Cross-Reactive Binding Antidrug IgG4 Antibody
CDISC Definition
A measurement of the neutralizing cross-reactive binding antidrug IgG4 antibody in a biological specimen.
NCI Preferred Term
Neutralizing Cross-Reactive Binding Antidrug Antibody IgG4 Measurement
xxTEST-J
Neut交差反応性結合ADA IgG4
CDISC Synonym(s)-J
中和交差反応性結合ADA IgG4; 中和交差反応性結合抗薬物IgG4抗体
CDISC Definition-J
生物学的標本中の中和交差反応性結合抗薬物 IgG4 抗体の測定。
NCI Preferred Term-J
中和交差反応性結合抗薬物抗体IgG4測定

Domain
IS
Code
C181389
xxTESTCD
ADNXIGGM
xxTEST
Neut Cross-Reactive Binding ADA IgG/IgM
CDISC Synonym(s)
Neut Cross-Reactive Binding ADA IgG/IgM; Neutralizing Cross-Reactive Binding Antidrug IgG/IgM Antibody
CDISC Definition
A measurement of the neutralizing cross-reactive binding antidrug IgG and/or IgM antibody in a biological specimen.
NCI Preferred Term
Neutralizing Cross-Reactive Binding Antidrug Antibody IgG/IgM Measurement
xxTEST-J
Neut交差反応性結合ADA IgG/IgM
CDISC Synonym(s)-J
中和交差反応性結合ADA IgG/IgM; 中和交差反応性結合抗薬物IgG/IgM抗体
CDISC Definition-J
生物学的標本中の中和交差反応性結合抗薬物 IgG および/または IgM 抗体の測定。
NCI Preferred Term-J
中和交差反応性結合抗薬物抗体IgG/IgM測定

Domain
IS
Code
C181388
xxTESTCD
ADNXIGM
xxTEST
Neut Cross-Reactive Binding ADA IgM
CDISC Synonym(s)
Neut Cross-Reactive Binding ADA IgM; Neutralizing Cross-Reactive Binding Antidrug IgM Antibody
CDISC Definition
A measurement of the neutralizing cross-reactive binding antidrug IgM antibody in a biological specimen.
NCI Preferred Term
Neutralizing Cross-Reactive Binding Antidrug Antibody IgM Measurement
xxTEST-J
Neut交差反応性結合ADA IgM
CDISC Synonym(s)-J
中和交差反応性結合ADA IgM; 中和交差反応性結合抗薬物IgM抗体
CDISC Definition-J
生物学的標本中の中和交差反応性結合抗薬物 IgM 抗体の測定。
NCI Preferred Term-J
中和交差反応性結合抗薬物抗体IgM測定

Domain
LB
Code
C102257
xxTESTCD
ADP
xxTEST
Adenosine Diphosphate
CDISC Synonym(s)
Adenosine Diphosphate
CDISC Definition
A measurement of the adenosine diphosphate in a biological specimen.
NCI Preferred Term
Adenosine Diphosphate Measurement
xxTEST-J
アデノシン二リン酸
CDISC Synonym(s)-J
アデノシン二リン酸
CDISC Definition-J
生物標本中のアデノシン二リン酸の​​測定。
NCI Preferred Term-J
アデノシン二リン酸測定

Domain
LB
Code
C74839
xxTESTCD
ADPNCTN
xxTEST
Adiponectin
CDISC Synonym(s)
Adiponectin
CDISC Definition
A measurement of the total adiponectin hormone in a biological specimen.
NCI Preferred Term
Adiponectin Measurement
xxTEST-J
アディポネクチン
CDISC Synonym(s)-J
アディポネクチン
CDISC Definition-J
生物標本中の総アディポネクチンホルモンの測定。
NCI Preferred Term-J
アディポネクチン測定

Domain
LB
Code
C132363
xxTESTCD
ADPNHMW
xxTEST
Adiponectin, High Molecular Weight
CDISC Synonym(s)
Adiponectin, High Molecular Weight
CDISC Definition
A measurement of the high molecular weight adiponectin hormone in a biological specimen.
NCI Preferred Term
High Molecular Weight Adiponectin Measurement
xxTEST-J
アディポネクチン（高分子量）
CDISC Synonym(s)-J
アディポネクチン（高分子量）
CDISC Definition-J
生物標本中の高分子量アディポネクチンホルモンの測定。
NCI Preferred Term-J
高分子量アディポネクチン測定

Domain
RP
Code
C189362
xxTESTCD
ADRNRAGE
xxTEST
Adrenarche Age
CDISC Synonym(s)
Adrenarche Age
CDISC Definition
The age at onset of adrenal androgen-mediated secondary sexual characteristics.
NCI Preferred Term
Adrenarche Age
xxTEST-J
アドレナーキ年齢
CDISC Synonym(s)-J
アドレナーキ年齢
CDISC Definition-J
副腎アンドロゲンを介した二次性徴の発現年齢。
NCI Preferred Term-J
アドレナーキ年齢

Domain
CV
Code
C139035
xxTESTCD
ADUCSEV
xxTEST
Aortic Ductal Coarctation Severity
CDISC Synonym(s)
Aortic Ductal Coarctation Severity; Aortic Juxta-ductal Coarctation Severity
CDISC Definition
The assessment of the severity of ductal aortic coarctation.
NCI Preferred Term
Aortic Juxta-ductal Coarctation Severity
xxTEST-J
大動脈管狭窄症の重症度
CDISC Synonym(s)-J
大動脈管狭窄症の重症度；大動脈管狭窄症の重症度
CDISC Definition-J
大動脈管狭窄症の重症度の評価。
NCI Preferred Term-J
大動脈管狭窄症の重症度

Domain
MB
Code
C191310
xxTESTCD
ADVNDNA
xxTEST
Adenovirus DNA
CDISC Synonym(s)
Adenovirus DNA
CDISC Definition
A measurement of the DNA from any member of the family Adenoviridae in a biological specimen.
NCI Preferred Term
Adenovirus DNA Measurement
xxTEST-J
アデノウイルスDNA
CDISC Synonym(s)-J
アデノウイルスDNA
CDISC Definition-J
生物標本中のアデノウイルス科の任意のメンバーの DNA の測定。
NCI Preferred Term-J
アデノウイルスDNA測定

Domain
MB
Code
C187838
xxTESTCD
ADVNUAC
xxTEST
Adenovirus Nucleic Acid
CDISC Synonym(s)
Adenovirus Nucleic Acid
CDISC Definition
A measurement of the nucleic acid from any member of the family Adenoviridae in a biological specimen.
NCI Preferred Term
Adenovirus Nucleic Acid Measurement
xxTEST-J
アデノウイルス核酸
CDISC Synonym(s)-J
アデノウイルス核酸
CDISC Definition-J
生物標本中のアデノウイルス科の任意のメンバーの核酸の測定。
NCI Preferred Term-J
アデノウイルス核酸測定

Domain
PT
Code
C210265
xxTESTCD
AEBCT
xxTEST
Aerobic Colony Count
CDISC Synonym(s)
Aerobic Colony Count
CDISC Definition
A measurement of the number of aerobic colonies in a sample.
NCI Preferred Term
Aerobic Colony Count
xxTEST-J
好気性コロニー数
CDISC Synonym(s)-J
好気性コロニー数
CDISC Definition-J
サンプル内の好気性コロニーの数の測定値。
NCI Preferred Term-J
好気性コロニー数

Domain
FA
Code
C88069
xxTESTCD
AEDCHIND
xxTEST
AE Improve/Resolve with Dechallenge Ind
CDISC Synonym(s)
AE Improve/Resolve with Dechallenge Ind; AE Improve/Resolve with Dechallenge Indicator
CDISC Definition
An indication as to whether an adverse event improves or disappears after stopping a study treatment.
NCI Preferred Term
Positive Dechallenge Reaction Indicator
xxTEST-J
AE 改善/解決（Dechallenge Ind）
CDISC Synonym(s)-J
AE 改善/解決（デチャレンジインジケーター付き）; AE 改善/解決（デチャレンジインジケーター付き）
CDISC Definition-J
研究治療を中止した後に有害事象が改善するか消失するかを示す指標。
NCI Preferred Term-J
陽性デチャレンジ反応指標

Domain
MB
Code
C198301
xxTESTCD
AERBACT
xxTEST
Aerobic Bacteria
CDISC Synonym(s)
Aerobic Bacteria
CDISC Definition
A measurement of the aerobic bacteria in a biological specimen.
NCI Preferred Term
Aerobic Bacteria Measurement
xxTEST-J
好気性細菌
CDISC Synonym(s)-J
好気性細菌
CDISC Definition-J
生物標本中の好気性細菌の測定。
NCI Preferred Term-J
好気性細菌の測定

Domain
FA
Code
C88070
xxTESTCD
AERCHIND
xxTEST
AE Reappear/Worsen with Rechallenge Ind
CDISC Synonym(s)
AE Reappear/Worsen with Rechallenge Ind; AE Reappear/Worsen with Rechallenge Indicator
CDISC Definition
An indication as to whether an adverse event reappears or worsens after restarting a study treatment.
NCI Preferred Term
Positive Rechallenge Indicator
xxTEST-J
AEは再挑戦で再発/悪化する
CDISC Synonym(s)-J
再チャレンジ指標によるAEの再発/悪化; 再チャレンジ指標によるAEの再発/悪化
CDISC Definition-J
試験治療を再開した後に有害事象が再発するか悪化するかを示す指標。
NCI Preferred Term-J
陽性再チャレンジ指標

Domain
MB
Code
C199965
xxTESTCD
AERODNA
xxTEST
Aeromonas DNA
CDISC Synonym(s)
Aeromonas DNA
CDISC Definition
A measurement of the DNA from any member of the genus Aeromonas in a biological specimen.
NCI Preferred Term
Aeromonas DNA Measurement
xxTEST-J
エロモナスDNA
CDISC Synonym(s)-J
エロモナスDNA
CDISC Definition-J
生物標本中の Aeromonas 属の任意のメンバーの DNA の測定。
NCI Preferred Term-J
エロモナスDNA測定

Domain
MB
Code
C199966
xxTESTCD
AEROMONA
xxTEST
Aeromonas
CDISC Synonym(s)
Aeromonas
CDISC Definition
A measurement of the organisms that are not assigned to the species level but are assigned to the Aeromonas genus level in a biological specimen.
NCI Preferred Term
Aeromonas Measurement
xxTEST-J
エロモナス
CDISC Synonym(s)-J
エロモナス
CDISC Definition-J
生物標本において、種レベルには割り当てられていないが、Aeromonas 属レベルに割り当てられている生物の測定値。
NCI Preferred Term-J
エロモナス測定

Domain
LB
Code
C98706
xxTESTCD
AFACTXAA
xxTEST
Anti-Factor Xa Activity
CDISC Synonym(s)
Anti-Factor Xa Activity
CDISC Definition
A measurement of the ability of antithrombin to inactivate activated Factor X in a biological specimen. This test is used to monitor low molecular weight or unfractionated heparin levels in a biological specimen.
NCI Preferred Term
Anti-Factor Xa Activity Measurement
xxTEST-J
抗第Xa因子活性
CDISC Synonym(s)-J
抗第Xa因子活性
CDISC Definition-J
生体検体中の活性型第X因子を不活化するアンチトロンビンの能力を測定する検査。この検査は、生体検体中の低分子量ヘパリンまたは未分画ヘパリン濃度をモニタリングするために使用されます。
NCI Preferred Term-J
抗第Xa因子活性測定

Domain
MB
Code
C128981
xxTESTCD
AFB
xxTEST
Acid-Fast Bacilli
CDISC Synonym(s)
Acid-Fast Bacilli
CDISC Definition
A measurement of any rod-shaped bacteria that resist decolorizing by acid after accepting an aqueous stain solution, due to the mycolic acids in their cell walls.
NCI Preferred Term
Acid-Fast Bacilli Measurement
xxTEST-J
抗酸菌
CDISC Synonym(s)-J
抗酸菌
CDISC Definition-J
細胞壁に含まれるミコール酸のせいで、水性染色溶液を受容した後、酸による脱色に抵抗する桿菌の測定値。
NCI Preferred Term-J
抗酸菌測定

Domain
PT
Code
C210267
xxTESTCD
AFLTOXB1
xxTEST
Aflatoxin B1
CDISC Synonym(s)
Aflatoxin B1
CDISC Definition
A measurement of the aflatoxin B1 in a specimen.
NCI Preferred Term
Aflatoxin B1 Measurement
xxTEST-J
アフラトキシンB1
CDISC Synonym(s)-J
アフラトキシンB1
CDISC Definition-J
検体中のアフラトキシン B1 の測定。
NCI Preferred Term-J
アフラトキシンB1測定

Domain
LB
Code
C74732
xxTESTCD
AFP
xxTEST
Alpha Fetoprotein
CDISC Synonym(s)
Alpha Fetoprotein; Alpha-1-Fetoprotein
CDISC Definition
A measurement of the alpha fetoprotein in a biological specimen.
NCI Preferred Term
Alpha-fetoprotein Measurement
xxTEST-J
アルファフェトプロテイン
CDISC Synonym(s)-J
アルファフェトプロテイン; アルファ-1-フェトプロテイン
CDISC Definition-J
生物学的標本中のアルファフェトプロテインの測定。
NCI Preferred Term-J
アルファフェトプロテイン測定

Domain
LB
Code
C147291
xxTESTCD
AFPADJBW
xxTEST
Alpha Fetoprotein Adj for Body Weight
CDISC Synonym(s)
Alpha Fetoprotein Adj for Body Weight
CDISC Definition
A measurement of alpha fetoprotein, which has been adjusted for body weight, in a biological specimen.
NCI Preferred Term
Alpha Fetoprotein Adjusted for Body Weight Measurement
xxTEST-J
体重に対するアルファフェトプロテイン調整値
CDISC Synonym(s)-J
体重に対するアルファフェトプロテイン調整値
CDISC Definition-J
体重に合わせて調整された、生物標本中のアルファフェトプロテインの測定値。
NCI Preferred Term-J
体重測定に合わせて調整されたアルファフェトプロテイン

Domain
LB
Code
C96562
xxTESTCD
AFPL1
xxTEST
Alpha Fetoprotein L1
CDISC Synonym(s)
Alpha Fetoprotein L1
CDISC Definition
A measurement of the alpha fetoprotein L1 in a biological specimen.
NCI Preferred Term
Alpha Fetoprotein L1 Measurement
xxTEST-J
アルファフェトプロテインL1
CDISC Synonym(s)-J
アルファフェトプロテインL1
CDISC Definition-J
生物標本中のアルファフェトプロテイン L1 の測定。
NCI Preferred Term-J
アルファフェトプロテインL1測定

Domain
LB
Code
C96563
xxTESTCD
AFPL2
xxTEST
Alpha Fetoprotein L2
CDISC Synonym(s)
Alpha Fetoprotein L2
CDISC Definition
A measurement of the alpha fetoprotein L2 in a biological specimen.
NCI Preferred Term
Alpha Fetoprotein L2 Measurement
xxTEST-J
アルファフェトプロテインL2
CDISC Synonym(s)-J
アルファフェトプロテインL2
CDISC Definition-J
生物標本中のアルファフェトプロテイン L2 の測定。
NCI Preferred Term-J
アルファフェトプロテインL2測定

Domain
LB
Code
C96564
xxTESTCD
AFPL3
xxTEST
Alpha Fetoprotein L3
CDISC Synonym(s)
Alpha Fetoprotein L3
CDISC Definition
A measurement of the alpha fetoprotein L3 in a biological specimen.
NCI Preferred Term
Alpha Fetoprotein L3 Measurement
xxTEST-J
アルファフェトプロテインL3
CDISC Synonym(s)-J
アルファフェトプロテインL3
CDISC Definition-J
生物標本中のアルファフェトプロテイン L3 の測定。
NCI Preferred Term-J
アルファフェトプロテインL3測定

Domain
LB
Code
C96565
xxTESTCD
AFPL3AFP
xxTEST
A Fetoprotein L3/A Fetoprotein
CDISC Synonym(s)
A Fetoprotein L3/A Fetoprotein
CDISC Definition
A relative measurement (ratio or percentage) of alpha fetoprotein L3 to total alpha fetoprotein in a biological specimen.
NCI Preferred Term
Alpha Fetoprotein L3 to Total Alpha Fetoprotein Ratio Measurement
xxTEST-J
A フェトプロテイン L3/A フェトプロテイン
CDISC Synonym(s)-J
A フェトプロテイン L3/A フェトプロテイン
CDISC Definition-J
生物標本中のアルファ フェトプロテイン L3 と総アルファ フェトプロテインとの相対的な測定値 (比率またはパーセンテージ)。
NCI Preferred Term-J
アルファフェトプロテインL3と総アルファフェトプロテイン比の測定

Domain
MB
Code
C187840
xxTESTCD
AFU
xxTEST
Aspergillus fumigatus
CDISC Synonym(s)
Aspergillus fumigatus
CDISC Definition
A measurement of the Aspergillus fumigatus in a biological specimen.
NCI Preferred Term
Aspergillus fumigatus Measurement
xxTEST-J
アスペルギルス・フミガーツス
CDISC Synonym(s)-J
アスペルギルス・フミガーツス
CDISC Definition-J
生物標本中の Aspergillus fumigatus の測定。
NCI Preferred Term-J
アスペルギルス・フミガーツス測定

Domain
LB
Code
C124334
xxTESTCD
AG1_5
xxTEST
1,5-Anhydroglucitol
CDISC Synonym(s)
1,5-Anhydroglucitol
CDISC Definition
A measurement of the 1,5-anhydroglucitol in a biological specimen.
NCI Preferred Term
1,5-Anhydroglucitol Measurement
xxTEST-J
1,5-無水グルシトール
CDISC Synonym(s)-J
1,5-無水グルシトール
CDISC Definition-J
生物標本中の 1,5-無水グルシトールの測定。
NCI Preferred Term-J
1,5-無水グルシトール測定

Domain
FA
Code
C124438
xxTESTCD
AGEEPSD1
xxTEST
Age At First Episode
CDISC Synonym(s)
Age At First Episode
CDISC Definition
The age at which the first episode occurred.
NCI Preferred Term
Age at First Episode
xxTEST-J
初回エピソード時の年齢
CDISC Synonym(s)-J
初回エピソード時の年齢
CDISC Definition-J
最初のエピソードが発生した年齢。
NCI Preferred Term-J
初発時の年齢

Domain
FA
Code
C139175
xxTESTCD
AGEFTUSE
xxTEST
Age at Full-Time Use
CDISC Synonym(s)
Age at Full-Time Use
CDISC Definition
The age at which the full-time use of a pre-specified object first occurred.
NCI Preferred Term
Age at Full-Time Use
xxTEST-J
フルタイム使用時の年齢
CDISC Synonym(s)-J
フルタイム使用時の年齢
CDISC Definition-J
事前に指定された物体を初めてフルタイムで使用した年齢。
NCI Preferred Term-J
フルタイム使用時の年齢

Domain
FA
Code
C124439
xxTESTCD
AGEHOSP1
xxTEST
Age At First Hospitalization
CDISC Synonym(s)
Age At First Hospitalization
CDISC Definition
The age at which the first hospitalization event occurred.
NCI Preferred Term
Age at First Hospitalization
xxTEST-J
初回入院時の年齢
CDISC Synonym(s)-J
初回入院時の年齢
CDISC Definition-J
最初の入院が発生した年齢。
NCI Preferred Term-J
初回入院時の年齢

Domain
SC
Code
C127060
xxTESTCD
AGESTSMK
xxTEST
Age Started Smoking
CDISC Synonym(s)
Age Started Smoking
CDISC Definition
The age at which the individual began smoking.
NCI Preferred Term
Age When First Smoked a Cigarette Question
xxTEST-J
喫煙開始年齢
CDISC Synonym(s)-J
喫煙開始年齢
CDISC Definition-J
喫煙を開始した年齢。
NCI Preferred Term-J
初めてタバコを吸った年齢に関する質問

Domain
FA
Code
C174273
xxTESTCD
AGESYMST
xxTEST
Age Symptoms Started
CDISC Synonym(s)
Age Symptoms Started
CDISC Definition
The age at which illness-specific symptoms first began.
NCI Preferred Term
Age Symptom Started
xxTEST-J
年齢 症状の始まり
CDISC Synonym(s)-J
年齢 症状の始まり
CDISC Definition-J
病気特有の症状が最初に現れた年齢。
NCI Preferred Term-J
年齢 症状の始まり

Domain
FA
Code
C124440
xxTESTCD
AGETRT1
xxTEST
Age At First Treatment
CDISC Synonym(s)
Age At First Treatment
CDISC Definition
The age at which the first treatment for the condition occurred.
NCI Preferred Term
Age at First Treatment
xxTEST-J
初回治療時の年齢
CDISC Synonym(s)-J
初回治療時の年齢
CDISC Definition-J
病気に対する最初の治療が行われた年齢。
NCI Preferred Term-J
初回治療時の年齢

Domain
LB
Code
C111126
xxTESTCD
AHBDH
xxTEST
Alpha Hydroxybutyrate Dehydrogenase
CDISC Synonym(s)
Alpha Hydroxybutyrate Dehydrogenase
CDISC Definition
A measurement of the alpha-hydroxybutyrate dehydrogenase in a biological specimen.
NCI Preferred Term
Alpha Hydroxybutyrate Dehydrogenase Measurement
xxTEST-J
アルファヒドロキシ酪酸脱水素酵素
CDISC Synonym(s)-J
アルファヒドロキシ酪酸脱水素酵素
CDISC Definition-J
生物標本中のα-ヒドロキシ酪酸脱水素酵素の測定。
NCI Preferred Term-J
α-ヒドロキシ酪酸脱水素酵素測定

Domain
LB
Code
C181418
xxTESTCD
AHTRZLM
xxTEST
Alpha-Hydroxytriazolam
CDISC Synonym(s)
Alpha-Hydroxytriazolam
CDISC Definition
A measurement of the alpha-hydroxytriazolam a biological specimen.
NCI Preferred Term
Alpha-Hydroxytriazolam Measurement
xxTEST-J
アルファ-ヒドロキシトリアゾラム
CDISC Synonym(s)-J
アルファ-ヒドロキシトリアゾラム
CDISC Definition-J
生物学的標本中のα-ヒドロキシトリアゾラムの測定。
NCI Preferred Term-J
アルファヒドロキシトリアゾラム測定

Domain
AU
Code
C198231
xxTESTCD
AIRBNCND
xxTEST
Air to Bone Sound Conduction Comparison
CDISC Synonym(s)
Air to Bone Sound Conduction Comparison
CDISC Definition
A relative assessment of sound transmission through air conduction versus bone conduction.
NCI Preferred Term
Air to Bone Sound Conduction Comparison
xxTEST-J
空気と骨の音伝導の比較
CDISC Synonym(s)-J
空気と骨の音伝導の比較
CDISC Definition-J
空気伝導と骨伝導による音の伝達の相対的な評価。
NCI Preferred Term-J
空気と骨の音伝導の比較

Domain
PT
Code
C210166
xxTESTCD
AIRFLRT
xxTEST
Airflow Rate
CDISC Synonym(s)
Airflow Rate
CDISC Definition
The speed of the movement of air.
NCI Preferred Term
Airflow Rate
xxTEST-J
空気流量
CDISC Synonym(s)-J
空気流量
CDISC Definition-J
空気の動きの速さ。
NCI Preferred Term-J
空気流量

Domain
AU
Code
C198232
xxTESTCD
AIRPRSSR
xxTEST
Air Pressure
CDISC Synonym(s)
Air Pressure
CDISC Definition
The force exerted by air upon a surface.
NCI Preferred Term
Air Pressure
xxTEST-J
空気圧
CDISC Synonym(s)-J
空気圧
CDISC Definition-J
空気が表面に及ぼす力。
NCI Preferred Term-J
空気圧

Domain
RE
Code
C170620
xxTESTCD
AIRTRAP
xxTEST
Air Trapping
CDISC Synonym(s)
Air Trapping
CDISC Definition
A measurement of the gas retention in a specified intrapulmonary space at the end of exhalation.
NCI Preferred Term
Air Trapping Measurement
xxTEST-J
エアトラッピング
CDISC Synonym(s)-J
エアトラッピング
CDISC Definition-J
呼気終了時の指定された肺内空間におけるガス保持量の測定値。
NCI Preferred Term-J
エアトラッピング測定

Domain
LB
Code
C202384
xxTESTCD
AKIRSC
xxTEST
Acute Kidney Injury Risk Score
CDISC Synonym(s)
Acute Kidney Injury Risk Score; AKI Risk Score
CDISC Definition
A scoring system that evaluates acute kidney injury risk through the assessment of urine test parameter(s), and which may take into account additional factors.
NCI Preferred Term
Acute Kidney Injury Risk Score
xxTEST-J
急性腎障害リスクスコア
CDISC Synonym(s)-J
急性腎障害リスクスコア; AKIリスクスコア
CDISC Definition-J
尿検査パラメータの評価を通じて急性腎障害のリスクを評価し、追加の要因を考慮するスコアリング システム。
NCI Preferred Term-J
急性腎障害リスクスコア

Domain
CP
Code
C198238
xxTESTCD
AKPC
xxTEST
Abn Kappa+ Plasma Cells
CDISC Synonym(s)
Abn Kappa+ PC; Abn Kappa+ Plasma Cells; Abnormal Kappa+ Plasma Cells
CDISC Definition
A measurement of the abnormal kappa+ plasma cells in a biological specimen.
NCI Preferred Term
Abnormal Kappa Positive Plasma Cell Count
xxTEST-J
Abn Kappa+形質細胞
CDISC Synonym(s)-J
Abn カッパ+ PC; Abn カッパ+ 形質細胞; 異常なカッパ+ 形質細胞
CDISC Definition-J
生物標本中の異常なκ+形質細胞の測定。
NCI Preferred Term-J
異常なカッパ陽性形質細胞数

Domain
CP
Code
C198239
xxTESTCD
AKPCALPC
xxTEST
Abn Kappa+ PC/Abn Lambda+ PC
CDISC Synonym(s)
Abn Kappa+ PC/Abn Lambda+ PC; Abnormal Kappa+ Plasma Cells/Abnormal Lambda+ Plasma Cells
CDISC Definition
A relative measurement (ratio) of the abnormal kappa+ plasma cells to abnormal lambda+ plasma cells in a biological specimen.
NCI Preferred Term
Abnormal Kappa Positive Plasma Cell to Abnormal Lambda Positive Plasma Cell Ratio Measurement
xxTEST-J
アブン カッパ+ PC/アブン ラムダ+ PC
CDISC Synonym(s)-J
Abn カッパ+ PC/Abn ラムダ+ PC; 異常なカッパ+ 形質細胞/異常なラムダ+ 形質細胞
CDISC Definition-J
生物学的標本中の異常なカッパ+形質細胞と異常なラムダ+形質細胞の相対的な測定値（比率）。
NCI Preferred Term-J
異常なカッパ陽性形質細胞と異常なラムダ陽性形質細胞比の測定

Domain
LB
Code
C122091
xxTESTCD
ALA
xxTEST
Alanine
CDISC Synonym(s)
Alanine
CDISC Definition
A measurement of the alanine in a biological specimen.
NCI Preferred Term
Alanine Measurement
xxTEST-J
アラニン
CDISC Synonym(s)-J
アラニン
CDISC Definition-J
生物標本中のアラニンの測定。
NCI Preferred Term-J
アラニン測定

Domain
LB
Code
C147292
xxTESTCD
ALA1ALB
xxTEST
Apolipoprotein A1/Apolipoprotein B
CDISC Synonym(s)
Apolipoprotein A1/Apolipoprotein B
CDISC Definition
A relative measurement (ratio or percentage) of the Apolipoprotein A1 to Apolipoprotein B in a biological specimen.
NCI Preferred Term
Apolipoprotein A1 to Apolipoprotein B Ratio Measurement
xxTEST-J
アポリポタンパク質A1/アポリポタンパク質B
CDISC Synonym(s)-J
アポリポタンパク質A1/アポリポタンパク質B
CDISC Definition-J
生物標本中のアポリポタンパク質 A1 とアポリポタンパク質 B の相対的な測定値 (比率またはパーセンテージ)。
NCI Preferred Term-J
アポリポタンパク質A1とアポリポタンパク質Bの比測定

Domain
LB
Code
C158222
xxTESTCD
ALAALB
xxTEST
Apolipoprotein A/Apolipoprotein B
CDISC Synonym(s)
Apolipoprotein A/Apolipoprotein B
CDISC Definition
A relative measurement (ratio) of the total apolipoprotein A to apolipoprotein B in a biological specimen.
NCI Preferred Term
Apolipoprotein A to Apolipoprotein B Ratio Measurement
xxTEST-J
アポリポタンパク質A/アポリポタンパク質B
CDISC Synonym(s)-J
アポリポタンパク質A/アポリポタンパク質B
CDISC Definition-J
生物標本中の総アポリポタンパク質 A とアポリポタンパク質 B の相対測定値（比率）。
NCI Preferred Term-J
アポリポタンパク質Aとアポリポタンパク質Bの比測定

Domain
IS
Code
C214530
xxTESTCD
ALAB
xxTEST
Alloantibody
CDISC Synonym(s)
Alloantibody
CDISC Definition
A measurement of the binding alloantibody in a biological specimen.
NCI Preferred Term
Alloantibody Measurement
xxTEST-J
アロ抗体
CDISC Synonym(s)-J
アロ抗体
CDISC Definition-J
生物学的標本中の結合同種抗体の測定。
NCI Preferred Term-J
アロ抗体測定

Domain
LB
Code
C64431
xxTESTCD
ALB
xxTEST
Albumin
CDISC Synonym(s)
Albumin; Microalbumin
CDISC Definition
A measurement of the albumin protein in a biological specimen.
NCI Preferred Term
Albumin Measurement
xxTEST-J
アルブミン
CDISC Synonym(s)-J
アルブミン; 微量アルブミン
CDISC Definition-J
生物標本中のアルブミンタンパク質の測定。
NCI Preferred Term-J
アルブミン測定

Domain
LB
Code
C147293
xxTESTCD
ALBC
xxTEST
Albumin Clearance
CDISC Synonym(s)
Albumin Clearance
CDISC Definition
A measurement of the albumin clearance in a biological specimen.
NCI Preferred Term
Albumin Clearance
xxTEST-J
アルブミンクリアランス
CDISC Synonym(s)-J
アルブミンクリアランス
CDISC Definition-J
生物学的標本中のアルブミンクリアランスの測定。
NCI Preferred Term-J
アルブミンクリアランス

Domain
LB
Code
C74761
xxTESTCD
ALBCREAT
xxTEST
Albumin/Creatinine
CDISC Synonym(s)
Albumin/Creatinine; Microalbumin/Creatinine Ratio
CDISC Definition
A relative measurement (ratio) of the albumin to the creatinine in a biological specimen.
NCI Preferred Term
Albumin To Creatinine Protein Ratio Measurement
xxTEST-J
アルブミン/クレアチニン
CDISC Synonym(s)-J
アルブミン/クレアチニン; 微量アルブミン/クレアチニン比
CDISC Definition-J
生物学的標本中のアルブミンとクレアチニンの相対的な測定値（比率）。
NCI Preferred Term-J
アルブミン対クレアチニンタンパク質比測定

Domain
LB
Code
C150814
xxTESTCD
ALBEXR
xxTEST
Albumin Excretion Rate
CDISC Synonym(s)
Albumin Excretion Rate
CDISC Definition
A measurement of the amount of albumin excreted in a biological specimen over a defined period of time (e.g. one hour).
NCI Preferred Term
Albumin Excretion Rate
xxTEST-J
アルブミン排泄率
CDISC Synonym(s)-J
アルブミン排泄率
CDISC Definition-J
定義された期間（例：1 時間）にわたって生物学的標本中に排泄されたアルブミンの量を測定します。
NCI Preferred Term-J
アルブミン排泄率

Domain
LB
Code
C158228
xxTESTCD
ALBGALB
xxTEST
Glycated Albumin/Albumin
CDISC Synonym(s)
Glycated Albumin/Albumin
CDISC Definition
A relative measurement (ratio or percentage) of the glycated albumin to total albumin in a biological specimen.
NCI Preferred Term
Glycated Albumin to Albumin Ratio Measurement
xxTEST-J
グリコアルブミン/アルブミン
CDISC Synonym(s)-J
グリコアルブミン/アルブミン
CDISC Definition-J
生物学的標本中の総アルブミンに対するグリコアルブミンの相対的な測定値（比率またはパーセンテージ）。
NCI Preferred Term-J
グリコアルブミンとアルブミンの比率測定

Domain
LB
Code
C74894
xxTESTCD
ALBGLOB
xxTEST
Albumin/Globulin
CDISC Synonym(s)
Albumin/Globulin
CDISC Definition
The ratio of albumin to globulin in a biological specimen.
NCI Preferred Term
Albumin to Globulin Ratio Measurement
xxTEST-J
アルブミン/グロブリン
CDISC Synonym(s)-J
アルブミン/グロブリン
CDISC Definition-J
生物標本中のアルブミンとグロブリンの比率。
NCI Preferred Term-J
アルブミン対グロブリン比測定

Domain
LB
Code
C122092
xxTESTCD
ALBGLYCA
xxTEST
Glycated Albumin
CDISC Synonym(s)
Glycated Albumin
CDISC Definition
A measurement of the glycated albumin present in a biological specimen.
NCI Preferred Term
Glycated Albumin Measurement
xxTEST-J
グリコアルブミン
CDISC Synonym(s)-J
グリコアルブミン
CDISC Definition-J
生物学的標本中に存在するグリコアルブミンの測定。
NCI Preferred Term-J
グリコアルブミン測定

Domain
LB
Code
C154734
xxTESTCD
ALBIDX
xxTEST
Albumin Index
CDISC Synonym(s)
Albumin Index
CDISC Definition
A relative measurement (ratio) of the albumin in cerebrospinal fluid to albumin in serum or plasma in a biological specimen.
NCI Preferred Term
Albumin Index
xxTEST-J
アルブミン指数
CDISC Synonym(s)-J
アルブミン指数
CDISC Definition-J
生物学的標本中の脳脊髄液中のアルブミンと血清または血漿中のアルブミンの相対的な測定値（比率）。
NCI Preferred Term-J
アルブミン指数

Domain
LB
Code
C103453
xxTESTCD
ALBPROT
xxTEST
Albumin/Total Protein
CDISC Synonym(s)
Albumin/Total Protein
CDISC Definition
A relative measurement (ratio or percentage) of the albumin to total protein in a biological specimen.
NCI Preferred Term
Albumin to Total Protein Ratio Measurement
xxTEST-J
アルブミン/総タンパク質
CDISC Synonym(s)-J
アルブミン/総タンパク質
CDISC Definition-J
生物学的標本中のアルブミンと総タンパク質の相対的な測定値（比率またはパーセンテージ）。
NCI Preferred Term-J
アルブミン対総タンパク質比測定

Domain
FA
Code
C184464
xxTESTCD
ALCDRKN
xxTEST
Number of Alcoholic Drinks
CDISC Synonym(s)
Number of Alcoholic Drinks
CDISC Definition
The total number of alcoholic drinks.
NCI Preferred Term
Number of Alcoholic Drinks Measurement
xxTEST-J
アルコール飲料の数
CDISC Synonym(s)-J
アルコール飲料の数
CDISC Definition-J
アルコール飲料の合計数。
NCI Preferred Term-J
アルコール飲料の摂取量の測定

Domain
LB
Code
C154743
xxTESTCD
ALDEPX
xxTEST
Aldrin Epoxidase
CDISC Synonym(s)
Aldrin Epoxidase
CDISC Definition
A measurement of the aldrin epoxidase in a biological specimen.
NCI Preferred Term
Aldrin Epoxidase Measurement
xxTEST-J
アルドリンエポキシダーゼ
CDISC Synonym(s)-J
アルドリンエポキシダーゼ
CDISC Definition-J
生物標本中のアルドリンエポキシダーゼの測定。
NCI Preferred Term-J
アルドリンエポキシダーゼ測定

Domain
LB
Code
C74731
xxTESTCD
ALDOLASE
xxTEST
Aldolase
CDISC Synonym(s)
Aldolase
CDISC Definition
A measurement of the aldolase enzyme in a biological specimen.
NCI Preferred Term
Aldolase Measurement
xxTEST-J
アルドラーゼ
CDISC Synonym(s)-J
アルドラーゼ
CDISC Definition-J
生物標本中のアルドラーゼ酵素の測定。
NCI Preferred Term-J
アルドラーゼ測定

Domain
LB
Code
C202382
xxTESTCD
ALDSTEXR
xxTEST
Aldosterone Excretion Rate
CDISC Synonym(s)
Aldosterone Excretion Rate
CDISC Definition
A measurement of the amount of aldosterone being excreted in a biological specimen over a defined amount of time (e.g. one hour).
NCI Preferred Term
Aldosterone Excretion Rate
xxTEST-J
アルドステロン排泄率
CDISC Synonym(s)-J
アルドステロン排泄率
CDISC Definition-J
定義された時間（例：1 時間）にわたって生物学的標本中に排出されるアルドステロンの量を測定します。
NCI Preferred Term-J
アルドステロン排泄率

Domain
LB
Code
C74841
xxTESTCD
ALDSTRN
xxTEST
Aldosterone
CDISC Synonym(s)
Aldosterone
CDISC Definition
A measurement of the aldosterone hormone in a biological specimen.
NCI Preferred Term
Aldosterone Measurement
xxTEST-J
アルドステロン
CDISC Synonym(s)-J
アルドステロン
CDISC Definition-J
生物標本中のアルドステロンホルモンの測定。
NCI Preferred Term-J
アルドステロン測定

Domain
LB
Code
C184566
xxTESTCD
ALFNTNL
xxTEST
Alfentanil
CDISC Synonym(s)
Alfentanil
CDISC Definition
A measurement of the alfentanil in a biological specimen.
NCI Preferred Term
Alfentanil Measurement
xxTEST-J
アルフェンタニル
CDISC Synonym(s)-J
アルフェンタニル
CDISC Definition-J
生物標本中のアルフェンタニルの測定。
NCI Preferred Term-J
アルフェンタニル測定

Domain
IS
Code
C214672
xxTESTCD
ALIGGAB
xxTEST
IgG Alloantibody
CDISC Synonym(s)
IgG Alloantibody
CDISC Definition
A measurement of the binding IgG alloantibody in a biological specimen.
NCI Preferred Term
IgG Alloantibody Measurement
xxTEST-J
IgGアロ抗体
CDISC Synonym(s)-J
IgGアロ抗体
CDISC Definition-J
生物学的標本中の結合IgG同種抗体の測定。
NCI Preferred Term-J
IgGアロ抗体測定

Domain
MI
Code
C154805
xxTESTCD
ALK
xxTEST
ALK Protein
CDISC Synonym(s)
ALK Protein
CDISC Definition
A measurement of the ALK receptor tyrosine kinase in a biological specimen.
NCI Preferred Term
ALK Protein Measurement
xxTEST-J
ALKタンパク質
CDISC Synonym(s)-J
ALKタンパク質
CDISC Definition-J
生物標本中の ALK 受容体チロシンキナーゼの測定。
NCI Preferred Term-J
ALKタンパク質測定

Domain
LB
Code
C154762
xxTESTCD
ALLOILE
xxTEST
Alloisoleucine
CDISC Synonym(s)
Alloisoleucine
CDISC Definition
A measurement of the alloisoleucine in a biological specimen.
NCI Preferred Term
Alloisoleucine Measurement
xxTEST-J
アロイソロイシン
CDISC Synonym(s)-J
アロイソロイシン
CDISC Definition-J
生物標本中のアロイソロイシンの測定。
NCI Preferred Term-J
アロイソロイシン測定

Domain
LB
Code
C184519
xxTESTCD
ALOX5
xxTEST
Arachidonate 5-Lipoxygenase
CDISC Synonym(s)
5-Lipoxygenase; 5-LO; 5-LOX; ALOX5; Arachidonate 5-Lipoxygenase
CDISC Definition
A measurement of the arachidonate 5-lipoxygenase in a biological specimen.
NCI Preferred Term
Arachidonate 5-Lipoxygenase Measurement
xxTEST-J
アラキドン酸5-リポキシゲナーゼ
CDISC Synonym(s)-J
5-リポキシゲナーゼ; 5-LO; 5-LOX; ALOX5; アラキドン酸5-リポキシゲナーゼ
CDISC Definition-J
生物標本中のアラキドン酸 5-リポキシゲナーゼの測定。
NCI Preferred Term-J
アラキドン酸5-リポキシゲナーゼ測定

Domain
LB
Code
C64432
xxTESTCD
ALP
xxTEST
Alkaline Phosphatase
CDISC Synonym(s)
Alkaline Phosphatase
CDISC Definition
A measurement of the alkaline phosphatase in a biological specimen.
NCI Preferred Term
Alkaline Phosphatase Measurement
xxTEST-J
アルカリホスファターゼ
CDISC Synonym(s)-J
アルカリホスファターゼ
CDISC Definition-J
生物標本中のアルカリホスファターゼの測定。
NCI Preferred Term-J
アルカリホスファターゼ測定

Domain
LB
Code
C147294
xxTESTCD
ALPBALP
xxTEST
Alk Phos, Bone/Total Alk Phos
CDISC Synonym(s)
Alk Phos, Bone/Total Alk Phos; Alkaline Phosphatase, Bone/Total Alkaline Phosphatase
CDISC Definition
A relative measurement (ratio or percentage) of the bone specific alkaline phosphatase isoform to total alkaline phosphatase in a biological specimen.
NCI Preferred Term
Bone Alkaline Phosphatase to Total Alkaline Phosphatase Ratio Measurement
xxTEST-J
アルカリホス、骨/総アルカリホス
CDISC Synonym(s)-J
アルカリホスファターゼ、骨/総アルカリホスファターゼ；アルカリホスファターゼ、骨/総アルカリホスファターゼ
CDISC Definition-J
生物標本中の骨特異的アルカリホスファターゼアイソフォームと総アルカリホスファターゼの相対測定値（比率またはパーセンテージ）。
NCI Preferred Term-J
骨アルカリホスファターゼと総アルカリホスファターゼの比測定

Domain
LB
Code
C92287
xxTESTCD
ALPBS
xxTEST
Bone Specific Alkaline Phosphatase
CDISC Synonym(s)
Bone Specific Alkaline Phosphatase
CDISC Definition
A measurement of the bone specific alkaline phosphatase isoform in a biological specimen.
NCI Preferred Term
Bone Specific Alkaline Phosphatase Measurement
xxTEST-J
骨特異的アルカリホスファターゼ
CDISC Synonym(s)-J
骨特異的アルカリホスファターゼ
CDISC Definition-J
生物標本中の骨特異的アルカリホスファターゼアイソフォームの測定。
NCI Preferred Term-J
骨特異的アルカリホスファターゼ測定

Domain
CP
Code
C198240
xxTESTCD
ALPC
xxTEST
Abn Lambda+ Plasma Cells
CDISC Synonym(s)
Abn Lambda+ PC; Abn Lambda+ Plasma Cells; Abnormal Lambda+ Plasma Cells
CDISC Definition
A measurement of the abnormal lambda+ plasma cells in a biological specimen.
NCI Preferred Term
Abnormal Lambda Positive Plasma Cell Count
xxTEST-J
Abn ラムダ+ 形質細胞
CDISC Synonym(s)-J
Abn Lambda+ PC; Abn Lambda+ 形質細胞; 異常な Lambda+ 形質細胞
CDISC Definition-J
生物学的標本内の異常なラムダ+形質細胞の測定。
NCI Preferred Term-J
異常なラムダ陽性形質細胞数

Domain
LB
Code
C79438
xxTESTCD
ALPCREAT
xxTEST
Alkaline Phosphatase/Creatinine
CDISC Synonym(s)
Alkaline Phosphatase/Creatinine
CDISC Definition
A relative measurement (ratio or percentage) of the alkaline phosphatase to creatinine in a biological specimen.
NCI Preferred Term
Alkaline Phosphatase to Creatinine Ratio Measurement
xxTEST-J
アルカリホスファターゼ/クレアチニン
CDISC Synonym(s)-J
アルカリホスファターゼ/クレアチニン
CDISC Definition-J
生物標本中のアルカリホスファターゼとクレアチニンの相対的な測定値（比率またはパーセンテージ）。
NCI Preferred Term-J
アルカリホスファターゼ対クレアチニン比測定

Domain
LB
Code
C165942
xxTESTCD
ALPEXR
xxTEST
Alkaline Phosphatase Excretion Rate
CDISC Synonym(s)
Alkaline Phosphatase Excretion Rate
CDISC Definition
A measurement of the amount of alkaline phosphatase being excreted in a biological specimen over a defined amount of time (e.g. one hour).
NCI Preferred Term
Alkaline Phosphatase Excretion Rate
xxTEST-J
アルカリホスファターゼ排泄率
CDISC Synonym(s)-J
アルカリホスファターゼ排泄率
CDISC Definition-J
定義された時間（例：1 時間）にわたって生物学的標本中に排出されるアルカリホスファターゼの量を測定します。
NCI Preferred Term-J
アルカリホスファターゼ排泄率

Domain
LB
Code
C147295
xxTESTCD
ALPIALP
xxTEST
Alk Phos, Intestinal/Total Alk Phos
CDISC Synonym(s)
Alk Phos, Intestinal/Total Alk Phos; Alkaline Phosphatase, Intestinal/Total Alkaline Phosphatase
CDISC Definition
A relative measurement (ratio or percentage) of the intestinal specific alkaline phosphatase isoform to total alkaline phosphatase in a biological specimen.
NCI Preferred Term
Intestinal Alkaline Phosphatase to Total Alkaline Phosphatase Ratio Measurement
xxTEST-J
アルカリホス、腸管/総アルカリホス
CDISC Synonym(s)-J
アルカリホスファターゼ、腸管/総アルカリホスファターゼ
CDISC Definition-J
生物学的標本中の腸特異的アルカリホスファターゼアイソフォームと総アルカリホスファターゼの相対的な測定値（比率またはパーセンテージ）。
NCI Preferred Term-J
腸管アルカリホスファターゼと総アルカリホスファターゼの比測定

Domain
LB
Code
C119266
xxTESTCD
ALPIS
xxTEST
Intestinal Specific Alkaline Phosphatase
CDISC Synonym(s)
Intestinal Specific Alkaline Phosphatase
CDISC Definition
A measurement of the intestinal specific alkaline phosphatase isoform in a biological specimen.
NCI Preferred Term
Intestinal Specific Alkaline Phosphatase Measurement
xxTEST-J
腸管特異的アルカリホスファターゼ
CDISC Synonym(s)-J
腸管特異的アルカリホスファターゼ
CDISC Definition-J
生物学的標本中の腸特異的アルカリホスファターゼアイソフォームの測定。
NCI Preferred Term-J
腸管特異的アルカリホスファターゼ測定

Domain
LB
Code
C139091
xxTESTCD
ALPISOE
xxTEST
Alkaline Phosphatase Isoenzyme
CDISC Synonym(s)
Alkaline Phosphatase Isoenzyme
CDISC Definition
A measurement of the alkaline phosphatase isoenzyme in a biological specimen.
NCI Preferred Term
Alkaline Phosphatase Isoenzyme Measurement
xxTEST-J
アルカリホスファターゼアイソザイム
CDISC Synonym(s)-J
アルカリホスファターゼアイソザイム
CDISC Definition-J
生物標本中のアルカリホスファターゼアイソザイムの測定。
NCI Preferred Term-J
アルカリホスファターゼアイソザイム測定

Domain
LB
Code
C147296
xxTESTCD
ALPLALP
xxTEST
Alk Phos, Liver/Total Alk Phos
CDISC Synonym(s)
Alk Phos, Liver/Total Alk Phos; Alkaline Phosphatase, Liver/Total Alkaline Phosphatase
CDISC Definition
A relative measurement (ratio or percentage) of the liver specific alkaline phosphatase isoform to total alkaline phosphatase in a biological specimen.
NCI Preferred Term
Liver Alkaline Phosphatase to Total Alkaline Phosphatase Ratio Measurement
xxTEST-J
アルカリホス、肝臓/総アルカリホス
CDISC Synonym(s)-J
アルカリホスファターゼ、肝臓／総アルカリホスファターゼ
CDISC Definition-J
生体標本中の肝臓特異的アルカリホスファターゼアイソフォームと総アルカリホスファターゼの相対測定値（比率またはパーセンテージ）。
NCI Preferred Term-J
肝臓アルカリホスファターゼと総アルカリホスファターゼの比測定

Domain
LB
Code
C189497
xxTESTCD
ALPLBALP
xxTEST
Alk Phos, Liver + Bone/Total Alk Phos
CDISC Synonym(s)
Alk Phos, Liver + Bone/Total Alk Phos
CDISC Definition
A relative measurement (ratio or percentage) of the liver and bone specific alkaline phosphatase isoforms to total alkaline phosphatase in a biological specimen.
NCI Preferred Term
Liver and Bone Specific Alkaline Phosphatase Isoform to Alkaline Phosphatase Ratio Measurement
xxTEST-J
アルカリホス、肝臓+骨/総アルカリホス
CDISC Synonym(s)-J
アルカリホス、肝臓+骨/総アルカリホス
CDISC Definition-J
生物標本中の肝臓および骨特異的アルカリホスファターゼアイソフォームと総アルカリホスファターゼの相対測定値（比率またはパーセンテージ）。
NCI Preferred Term-J
肝臓および骨特異的アルカリホスファターゼアイソフォーム対アルカリホスファターゼ比測定

Domain
LB
Code
C119267
xxTESTCD
ALPLS
xxTEST
Liver Specific Alkaline Phosphatase
CDISC Synonym(s)
Liver Specific Alkaline Phosphatase
CDISC Definition
A measurement of the liver specific alkaline phosphatase isoform in a biological specimen.
NCI Preferred Term
Liver Specific Alkaline Phosphatase Measurement
xxTEST-J
肝特異的アルカリホスファターゼ
CDISC Synonym(s)-J
肝特異的アルカリホスファターゼ
CDISC Definition-J
生物学的標本中の肝臓特異的アルカリホスファターゼアイソフォームの測定。
NCI Preferred Term-J
肝特異的アルカリホスファターゼ測定

Domain
LB
Code
C184508
xxTESTCD
ALPPALP
xxTEST
Alk Phos, Placental/Total Alk Phos
CDISC Synonym(s)
Alk Phos, Placental/Total Alk Phos; Alkaline Phosphatase, Placental/Total Alkaline Phosphatase
CDISC Definition
A relative measurement (ratio or percentage) of the placental specific alkaline phosphatase isoform to total alkaline phosphatase in a biological specimen.
NCI Preferred Term
Placental Alkaline Phosphatase to Total Alkaline Phosphatase Measurement
xxTEST-J
アルクホス、胎盤/総アルクホス
CDISC Synonym(s)-J
アルカリホスファターゼ、胎盤性/総アルカリホスファターゼ；アルカリホスファターゼ、胎盤性/総アルカリホスファターゼ
CDISC Definition-J
生物学的標本中の総アルカリホスファターゼに対する胎盤特異的アルカリホスファターゼアイソフォームの相対的測定値（比率またはパーセンテージ）。
NCI Preferred Term-J
胎盤アルカリホスファターゼから総アルカリホスファターゼの測定

Domain
LB
Code
C184509
xxTESTCD
ALPPS
xxTEST
Placental Specific Alkaline Phosphatase
CDISC Synonym(s)
Placental Specific Alkaline Phosphatase
CDISC Definition
A measurement of the placental specific alkaline phosphatase isoform in a biological specimen.
NCI Preferred Term
Placental Specific Alkaline Phosphatase Measurement
xxTEST-J
胎盤特異的アルカリホスファターゼ
CDISC Synonym(s)-J
胎盤特異的アルカリホスファターゼ
CDISC Definition-J
生物学的標本中の胎盤特異的アルカリホスファターゼアイソフォームの測定。
NCI Preferred Term-J
胎盤特異的アルカリホスファターゼ測定

Domain
LB
Code
C75370
xxTESTCD
ALPRZLM
xxTEST
Alprazolam
CDISC Synonym(s)
Alprazolam
CDISC Definition
A measurement of the alprazolam present in a biological specimen.
NCI Preferred Term
Alprazolam Measurement
xxTEST-J
アルプラゾラム
CDISC Synonym(s)-J
アルプラゾラム
CDISC Definition-J
生物標本中に存在するアルプラゾラムの測定。
NCI Preferred Term-J
アルプラゾラム測定

Domain
LB
Code
C163419
xxTESTCD
ALS
xxTEST
Acid Labile Subunit
CDISC Synonym(s)
Acid Labile Subunit; ALS; IGFALS; Insulin Like Growth Factor Binding Protein Acid Labile Subunit
CDISC Definition
A measurement of the acid labile subunit in a biological specimen.
NCI Preferred Term
Acid Labile Subunit Measurement
xxTEST-J
酸不安定サブユニット
CDISC Synonym(s)-J
酸不安定サブユニット; ALS; IGFALS; インスリン様成長因子結合タンパク質酸不安定サブユニット
CDISC Definition-J
生物標本中の酸不安定サブユニットの測定。
NCI Preferred Term-J
酸不安定サブユニット測定

Domain
LB
Code
C64433
xxTESTCD
ALT
xxTEST
Alanine Aminotransferase
CDISC Synonym(s)
Alanine Aminotransferase; SGPT
CDISC Definition
A measurement of the alanine aminotransferase in a biological specimen.
NCI Preferred Term
Alanine Aminotransferase Measurement
xxTEST-J
アラニンアミノトランスフェラーゼ
CDISC Synonym(s)-J
アラニンアミノトランスフェラーゼ; SGPT
CDISC Definition-J
生物標本中のアラニンアミノトランスフェラーゼの測定。
NCI Preferred Term-J
アラニンアミノトランスフェラーゼ測定

Domain
LB
Code
C106498
xxTESTCD
ALTAST
xxTEST
ALT/AST
CDISC Synonym(s)
ALT/AST
CDISC Definition
A relative measurement (ratio or percentage) of the alanine aminotransferase (ALT) to aspartate aminotransferase (AST) present in a sample.
NCI Preferred Term
Alanine Aminotransferase to Aspartate Aminotransferase Ratio Measurement
xxTEST-J
ALT/AST
CDISC Synonym(s)-J
ALT/AST
CDISC Definition-J
サンプル中に存在するアラニンアミノトランスフェラーゼ (ALT) とアスパラギン酸アミノトランスフェラーゼ (AST) の相対的な測定値 (比率またはパーセンテージ)。
NCI Preferred Term-J
アラニンアミノトランスフェラーゼとアスパラギン酸アミノトランスフェラーゼの比率測定

Domain
LB
Code
C103349
xxTESTCD
ALTCPHRL
xxTEST
Alpha Tocopherol
CDISC Synonym(s)
Alpha Tocopherol
CDISC Definition
A measurement of the alpha tocopherol in a biological specimen.
NCI Preferred Term
Alpha Tocopherol Measurement
xxTEST-J
アルファトコフェロール
CDISC Synonym(s)-J
アルファトコフェロール
CDISC Definition-J
生物標本中のアルファトコフェロールの測定。
NCI Preferred Term-J
アルファトコフェロール測定

Domain
LB
Code
C111127
xxTESTCD
ALUMINUM
xxTEST
Aluminum
CDISC Synonym(s)
Al; Aluminum
CDISC Definition
A measurement of aluminum in a biological specimen.
NCI Preferred Term
Aluminum Measurement
xxTEST-J
アルミニウム
CDISC Synonym(s)-J
Al; アルミニウム
CDISC Definition-J
生物標本中のアルミニウムの測定。
NCI Preferred Term-J
アルミニウム測定

Domain
RE
Code
C156584
xxTESTCD
ALVVOL
xxTEST
Alveolar Volume
CDISC Synonym(s)
Alveolar Volume; VA
CDISC Definition
The quantity of gas that enters the alveoli during inspiration.
NCI Preferred Term
Alveolar Volume
xxTEST-J
肺胞容積
CDISC Synonym(s)-J
肺胞容積; VA
CDISC Definition-J
吸気時に肺胞に入るガスの量。
NCI Preferred Term-J
肺胞容積

Domain
MB
Code
C209633
xxTESTCD
ALW
xxTEST
Acinetobacter lwoffii
CDISC Synonym(s)
Acinetobacter lwoffii
CDISC Definition
A measurement of the Acinetobacter lwoffii in a biological specimen.
NCI Preferred Term
Acinetobacter Iwoffii Measurement
xxTEST-J
アシネトバクター・ルウォフィ
CDISC Synonym(s)-J
アシネトバクター・ルウォフィ
CDISC Definition-J
生物標本中の Acinetobacter lwoffii の測定。
NCI Preferred Term-J
アシネトバクター・イウォフィ測定

Domain
LB
Code
C184539
xxTESTCD
AM2201
xxTEST
AM-2201
CDISC Synonym(s)
AM-2201; AM2201
CDISC Definition
A measurement of the synthetic cannabinoid AM-2201 in a biological specimen.
NCI Preferred Term
AM-2201 Measurement
xxTEST-J
AM-2201
CDISC Synonym(s)-J
AM-2201; AM2201
CDISC Definition-J
生物標本中の合成カンナビノイド AM-2201 の測定。
NCI Preferred Term-J
AM-2201測定

Domain
LB
Code
C184538
xxTESTCD
AM694N5H
xxTEST
AM694 N-5-hydroxypentyl
CDISC Synonym(s)
AM694 N-5-hydroxypentyl
CDISC Definition
A measurement of the synthetic cannabinoid metabolite AM694 N-5-hydroxypentyl in a biological specimen.
NCI Preferred Term
AM694 N-5-hydroxypentyl Measurement
xxTEST-J
AM694 N-5-ヒドロキシペンチル
CDISC Synonym(s)-J
AM694 N-5-ヒドロキシペンチル
CDISC Definition-J
生物標本中の合成カンナビノイド代謝物 AM694 N-5-ヒドロキシペンチルの測定。
NCI Preferred Term-J
AM694 N-5-ヒドロキシペンチル測定

Domain
LB
Code
C132364
xxTESTCD
AMACR
xxTEST
Alpha-Methylacyl Coenzyme A Racemase
CDISC Synonym(s)
Alpha-Methylacyl Coenzyme A Racemase
CDISC Definition
A measurement of the alpha-methylacyl coenzyme A racemase in a biological specimen.
NCI Preferred Term
Alpha-Methylacyl Coenzyme A Racemase Measurement
xxTEST-J
α-メチルアシルコエンザイムAラセマーゼ
CDISC Synonym(s)-J
α-メチルアシルコエンザイムAラセマーゼ
CDISC Definition-J
生物標本中のα-メチルアシル補酵素Aラセマーゼの測定。
NCI Preferred Term-J
α-メチルアシルコエンザイムAラセマーゼ測定

Domain
MI
Code
C132364
xxTESTCD
AMACR
xxTEST
Alpha-Methylacyl Coenzyme A Racemase
CDISC Synonym(s)
Alpha-Methylacyl Coenzyme A Racemase
CDISC Definition
A measurement of the alpha-methylacyl coenzyme A racemase in a biological specimen.
NCI Preferred Term
Alpha-Methylacyl Coenzyme A Racemase Measurement
xxTEST-J
α-メチルアシルコエンザイムAラセマーゼ
CDISC Synonym(s)-J
α-メチルアシルコエンザイムAラセマーゼ
CDISC Definition-J
生物標本中のα-メチルアシル補酵素Aラセマーゼの測定。
NCI Preferred Term-J
α-メチルアシルコエンザイムAラセマーゼ測定

Domain
LB
Code
C75363
xxTESTCD
AMBRBTL
xxTEST
Amobarbital
CDISC Synonym(s)
Amobarbital
CDISC Definition
A measurement of the amobarbital present in a biological specimen.
NCI Preferred Term
Amobarbital Measurement
xxTEST-J
アモバルビタール
CDISC Synonym(s)-J
アモバルビタール
CDISC Definition-J
生物学的標本中に存在するアモバルビタールの測定。
NCI Preferred Term-J
アモバルビタール測定

Domain
LB
Code
C132365
xxTESTCD
AMCRMRNA
xxTEST
AMACR mRNA
CDISC Synonym(s)
AMACR mRNA
CDISC Definition
A measurement of the alpha-methylacyl coenzyme A racemase mRNA in a biological specimen.
NCI Preferred Term
Alpha-Methylacyl Coenzyme A Racemase mRNA Measurement
xxTEST-J
AMACR mRNA
CDISC Synonym(s)-J
AMACR mRNA
CDISC Definition-J
生物標本中のα-メチルアシルコエンザイムAラセマーゼmRNAの測定。
NCI Preferred Term-J
α-メチルアシルコエンザイムAラセマーゼmRNA測定

Domain
RP
Code
C204695
xxTESTCD
AMENSIND
xxTEST
Actively Menstruating Indicator
CDISC Synonym(s)
Actively Menstruating Indicator
CDISC Definition
An indication as to whether the subject is menstruating at the time the question is asked.
NCI Preferred Term
Actively Menstruating Indicator
xxTEST-J
月経中インジケーター
CDISC Synonym(s)-J
月経中インジケーター
CDISC Definition-J
質問時に対象者が月経中であるかどうかを示します。
NCI Preferred Term-J
月経中インジケーター

Domain
LB
Code
C120625
xxTESTCD
AMH
xxTEST
Anti-Mullerian Hormone
CDISC Synonym(s)
Anti-Mullerian Hormone
CDISC Definition
A measurement of the anti-Mullerian hormone in a biological specimen.
NCI Preferred Term
Anti-Mullerian Hormone Measurement
xxTEST-J
抗ミュラー管ホルモン
CDISC Synonym(s)-J
抗ミュラー管ホルモン
CDISC Definition-J
生物学的標本中の抗ミュラー管ホルモンの測定。
NCI Preferred Term-J
抗ミュラー管ホルモン測定

Domain
EG
Code
C116140
xxTESTCD
AMIEGCHG
xxTEST
Acute Myocardial Ischemia ECG Change
CDISC Synonym(s)
Acute Myocardial Ischemia ECG Change
CDISC Definition
An electrocardiographic finding assessment of new or presumed new significant ST-segment-T wave (ST-T) changes or new left bundle branch block consistent with acute myocardial ischemia. (Thygesen K, Alpert JS, Jaffe AS, Simoons ML, et al.; Joint ESC/ACCF/
NCI Preferred Term
Acute Myocardial Ischemia by ECG Assessment
xxTEST-J
急性心筋虚血心電図変化
CDISC Synonym(s)-J
急性心筋虚血心電図変化
CDISC Definition-J
心電図所見の評価では、急性心筋虚血に一致する新規または推定される新規の有意なST部分T波（ST-T）変化、または新規の左脚ブロックがみられます。（Thygesen K、Alpert JS、Jaffe AS、Simoons ML、et al.; Joint ESC/ACCF/
NCI Preferred Term-J
心電図による急性心筋虚血の評価

Domain
LB
Code
C186023
xxTESTCD
AMITRPTL
xxTEST
Amitriptyline
CDISC Synonym(s)
Amitriptyline
CDISC Definition
A measurement of the amitriptyline in a biological specimen.
NCI Preferred Term
Amitriptyline Measurement
xxTEST-J
アミトリプチリン
CDISC Synonym(s)-J
アミトリプチリン
CDISC Definition-J
生物学的標本中のアミトリプチリンの測定。
NCI Preferred Term-J
アミトリプチリン測定

Domain
PT
Code
C74799
xxTESTCD
AMMONIA
xxTEST
Ammonia
CDISC Synonym(s)
Ammonia; NH3
CDISC Definition
A measurement of the ammonia in a specimen.
NCI Preferred Term
Ammonia Measurement
xxTEST-J
アンモニア
CDISC Synonym(s)-J
アンモニア; NH3
CDISC Definition-J
標本内のアンモニアの測定。
NCI Preferred Term-J
アンモニア測定

Domain
LB
Code
C74799
xxTESTCD
AMMONIA
xxTEST
Ammonia
CDISC Synonym(s)
Ammonia; NH3
CDISC Definition
A measurement of the ammonia in a specimen.
NCI Preferred Term
Ammonia Measurement
xxTEST-J
アンモニア
CDISC Synonym(s)-J
アンモニア; NH3
CDISC Definition-J
標本内のアンモニアの測定。
NCI Preferred Term-J
アンモニア測定

Domain
LB
Code
C186024
xxTESTCD
AMNM
xxTEST
Ammonium
CDISC Synonym(s)
Ammonium; Ammonium Ion; NH4+
CDISC Definition
A measurement of the ammonium ion (NH4+) in a biological specimen.
NCI Preferred Term
Ammonium Measurement
xxTEST-J
アンモニウム
CDISC Synonym(s)-J
アンモニウム; アンモニウムイオン; NH4+
CDISC Definition-J
生物標本中のアンモニウムイオン (NH4+) の測定。
NCI Preferred Term-J
アンモニウム測定

Domain
LB
Code
C186025
xxTESTCD
AMNMCRT
xxTEST
Ammonium/Creatinine
CDISC Synonym(s)
Ammonium/Creatinine
CDISC Definition
A relative measurement (ratio) of ammonium to creatinine in a biological specimen.
NCI Preferred Term
Ammonium to Creatinine Ratio Measurement
xxTEST-J
アンモニウム/クレアチニン
CDISC Synonym(s)-J
アンモニウム/クレアチニン
CDISC Definition-J
生物標本中のアンモニウムとクレアチニンの相対的な測定値（比率）。
NCI Preferred Term-J
アンモニウム対クレアチニン比測定

Domain
LB
Code
C81183
xxTESTCD
AMNOACID
xxTEST
Amino Acids
CDISC Synonym(s)
AA; Amino Acids
CDISC Definition
A measurement of the total amino acids in a biological specimen.
NCI Preferred Term
Amino Acid Measurement
xxTEST-J
アミノ酸
CDISC Synonym(s)-J
AA; アミノ酸
CDISC Definition-J
生物標本中のアミノ酸の総量の測定。
NCI Preferred Term-J
アミノ酸測定

Domain
PT
Code
C204639
xxTESTCD
AMNPHTH1
xxTEST
1-Aminonaphthalene
CDISC Synonym(s)
1-Aminonaphthalene; 1-Naphthylamine
CDISC Definition
A measurement of the 1-aminonaphthalene in a specimen.
NCI Preferred Term
1-Aminonaphthalene Measurement
xxTEST-J
1-アミノナフタレン
CDISC Synonym(s)-J
1-アミノナフタレン; 1-ナフチルアミン
CDISC Definition-J
標本中の1-アミノナフタレンの測定。
NCI Preferred Term-J
1-アミノナフタレン測定

Domain
LB
Code
C204639
xxTESTCD
AMNPHTH1
xxTEST
1-Aminonaphthalene
CDISC Synonym(s)
1-Aminonaphthalene; 1-Naphthylamine
CDISC Definition
A measurement of the 1-aminonaphthalene in a specimen.
NCI Preferred Term
1-Aminonaphthalene Measurement
xxTEST-J
1-アミノナフタレン
CDISC Synonym(s)-J
1-アミノナフタレン; 1-ナフチルアミン
CDISC Definition-J
標本中の1-アミノナフタレンの測定。
NCI Preferred Term-J
1-アミノナフタレン測定

Domain
PT
Code
C204640
xxTESTCD
AMNPHTH2
xxTEST
2-Aminonaphthalene
CDISC Synonym(s)
2-Aminonaphthalene; 2-Naphthylamine
CDISC Definition
A measurement of the 2-aminonaphthalene in a specimen.
NCI Preferred Term
2-Aminonaphthalene Measurement
xxTEST-J
2-アミノナフタレン
CDISC Synonym(s)-J
2-アミノナフタレン; 2-ナフチルアミン
CDISC Definition-J
標本中の2-アミノナフタレンの測定。
NCI Preferred Term-J
2-アミノナフタレン測定

Domain
LB
Code
C204640
xxTESTCD
AMNPHTH2
xxTEST
2-Aminonaphthalene
CDISC Synonym(s)
2-Aminonaphthalene; 2-Naphthylamine
CDISC Definition
A measurement of the 2-aminonaphthalene in a specimen.
NCI Preferred Term
2-Aminonaphthalene Measurement
xxTEST-J
2-アミノナフタレン
CDISC Synonym(s)-J
2-アミノナフタレン; 2-ナフチルアミン
CDISC Definition-J
標本中の2-アミノナフタレンの測定。
NCI Preferred Term-J
2-アミノナフタレン測定

Domain
LB
Code
C74666
xxTESTCD
AMORPHSD
xxTEST
Amorphous Sediment
CDISC Synonym(s)
Amorphous Debris; Amorphous Sediment
CDISC Definition
A measurement of the amorphous sediment present in a biological specimen.
NCI Preferred Term
Amorphous Sediment Measurement
xxTEST-J
非晶質堆積物
CDISC Synonym(s)-J
非晶質堆積物
CDISC Definition-J
生物標本中に存在する非晶質沈殿物の測定。
NCI Preferred Term-J
非晶質堆積物の測定

Domain
LB
Code
C75347
xxTESTCD
AMPEA
xxTEST
Alpha-Methylphenethylamine
CDISC Synonym(s)
Alpha-Methylphenethylamine; Amphetamine
CDISC Definition
A measurement of the alpha-methylphenethylamine in a biological specimen.
NCI Preferred Term
Amphetamine Measurement
xxTEST-J
アルファ-メチルフェネチルアミン
CDISC Synonym(s)-J
アルファメチルフェネチルアミン; アンフェタミン
CDISC Definition-J
生物標本中のアルファ-メチルフェネチルアミンの測定。
NCI Preferred Term-J
アンフェタミン測定

Domain
LB
Code
C74687
xxTESTCD
AMPHET
xxTEST
Amphetamine
CDISC Synonym(s)
Amphetamine; Amphetamines
CDISC Definition
A measurement of any amphetamine class drug present in a biological specimen.
NCI Preferred Term
Amphetamine Drug Class Measurement
xxTEST-J
アンフェタミン
CDISC Synonym(s)-J
アンフェタミン
CDISC Definition-J
生物学的標本中に存在するアンフェタミン類の薬物の測定。
NCI Preferred Term-J
アンフェタミン薬物クラスの測定

Domain
LB
Code
C102262
xxTESTCD
AMPHETD
xxTEST
Dextroamphetamine
CDISC Synonym(s)
d-amphetamine; Dextroamphetamine
CDISC Definition
A measurement of the dextroamphetamine in a biological specimen.
NCI Preferred Term
Dextroamphetamine Measurement
xxTEST-J
デキストロアンフェタミン
CDISC Synonym(s)-J
d-アンフェタミン; デキストロアンフェタミン
CDISC Definition-J
生物学的標本中のデキストロアンフェタミンの測定。
NCI Preferred Term-J
デキストロアンフェタミン測定

Domain
LB
Code
C64434
xxTESTCD
AMYLASE
xxTEST
Amylase
CDISC Synonym(s)
Amylase
CDISC Definition
A measurement of the total enzyme amylase in a biological specimen.
NCI Preferred Term
Amylase Measurement
xxTEST-J
アミラーゼ
CDISC Synonym(s)-J
アミラーゼ
CDISC Definition-J
生物標本中の総酵素アミラーゼの測定。
NCI Preferred Term-J
アミラーゼ測定

Domain
LB
Code
C111243
xxTESTCD
AMYLASEM
xxTEST
Macroamylase
CDISC Synonym(s)
Macroamylase
CDISC Definition
A measurement of macroamylase in a biological specimen.
NCI Preferred Term
Macroamylase Measurement
xxTEST-J
マクロアミラーゼ
CDISC Synonym(s)-J
マクロアミラーゼ
CDISC Definition-J
生物標本中のマクロアミラーゼの測定。
NCI Preferred Term-J
マクロアミラーゼ測定

Domain
LB
Code
C98767
xxTESTCD
AMYLASEP
xxTEST
Amylase, Pancreatic
CDISC Synonym(s)
Amylase, Pancreatic; Pancreatic Amylase Isoenzyme
CDISC Definition
A measurement of the pancreatic enzyme amylase in a biological specimen.
NCI Preferred Term
Pancreatic Amylase Measurement
xxTEST-J
膵臓アミラーゼ
CDISC Synonym(s)-J
膵アミラーゼ；膵アミラーゼアイソザイム
CDISC Definition-J
生物標本中の膵臓酵素アミラーゼの測定。
NCI Preferred Term-J
膵アミラーゼ測定

Domain
LB
Code
C98780
xxTESTCD
AMYLASES
xxTEST
Amylase, Salivary
CDISC Synonym(s)
Amylase, Salivary; Salivary Amylase Isoenzyme
CDISC Definition
A measurement of the salivary enzyme amylase in a biological specimen.
NCI Preferred Term
Salivary Amylase Measurement
xxTEST-J
唾液アミラーゼ
CDISC Synonym(s)-J
唾液アミラーゼ；唾液アミラーゼアイソザイム
CDISC Definition-J
生物標本中の唾液酵素アミラーゼの測定。
NCI Preferred Term-J
唾液アミラーゼ測定

Domain
LB
Code
C103352
xxTESTCD
AMYLB38
xxTEST
Amyloid Beta 1-38
CDISC Synonym(s)
Amyloid Beta 1-38; Amyloid Beta 38; Amyloid Beta 38 Protein
CDISC Definition
A measurement of amyloid beta protein which is composed of peptides 1 to 38 in a biological specimen.
NCI Preferred Term
Amyloid Beta 1-38 Measurement
xxTEST-J
アミロイドβ1-38
CDISC Synonym(s)-J
アミロイドβ1-38; アミロイドβ38; アミロイドβ38タンパク質
CDISC Definition-J
生物標本中のペプチド 1 ～ 38 で構成されるアミロイド ベータ タンパク質の測定。
NCI Preferred Term-J
アミロイドβ1-38測定

Domain
LB
Code
C103353
xxTESTCD
AMYLB40
xxTEST
Amyloid Beta 1-40
CDISC Synonym(s)
Amyloid Beta 1-40; Amyloid Beta 40; Amyloid Beta 40 Protein
CDISC Definition
A measurement of amyloid beta protein which is composed of peptides 1 to 40 in a biological specimen.
NCI Preferred Term
Amyloid Beta 1-40 Measurement
xxTEST-J
アミロイドβ1-40
CDISC Synonym(s)-J
アミロイドβ1-40; アミロイドβ40; アミロイドβ40タンパク質
CDISC Definition-J
生物標本中のペプチド 1 ～ 40 で構成されるアミロイド ベータ タンパク質の測定。
NCI Preferred Term-J
アミロイドβ1-40測定

Domain
LB
Code
C184518
xxTESTCD
AMYLB41
xxTEST
Amyloid Beta 1-41
CDISC Synonym(s)
Amyloid Beta 1-41; Amyloid Beta 41; Amyloid Beta 41 Protein
CDISC Definition
A measurement of amyloid beta protein which is composed of peptides 1 to 41 in a biological specimen.
NCI Preferred Term
Amyloid Beta 1-41 Measurement
xxTEST-J
アミロイドβ1-41
CDISC Synonym(s)-J
アミロイドβ1-41; アミロイドβ41; アミロイドβ41タンパク質
CDISC Definition-J
生物標本中のペプチド 1 ～ 41 で構成されるアミロイド ベータ タンパク質の測定。
NCI Preferred Term-J
アミロイドβ1-41測定

Domain
LB
Code
C84809
xxTESTCD
AMYLB42
xxTEST
Amyloid Beta 1-42
CDISC Synonym(s)
Amyloid Beta 1-42; Amyloid Beta 42; Amyloid Beta 42 Protein
CDISC Definition
A measurement of amyloid beta protein which is composed of peptides 1 to 42 in a biological specimen.
NCI Preferred Term
Beta Amyloid 42 Measurement
xxTEST-J
アミロイドβ1-42
CDISC Synonym(s)-J
アミロイドβ1-42; アミロイドβ42; アミロイドβ42タンパク質
CDISC Definition-J
生物標本中のペプチド 1 ～ 42 で構成されるアミロイド ベータ タンパク質の測定。
NCI Preferred Term-J
ベータアミロイド42測定

Domain
LB
Code
C125940
xxTESTCD
AMYLOIDA
xxTEST
Amyloid A
CDISC Synonym(s)
Amyloid A
CDISC Definition
A measurement of the total amyloid A in a biological specimen.
NCI Preferred Term
Amyloid A Measurement
xxTEST-J
アミロイドA
CDISC Synonym(s)-J
アミロイドA
CDISC Definition-J
生物標本中のアミロイド A の総量の測定。
NCI Preferred Term-J
アミロイドA測定

Domain
LB
Code
C81999
xxTESTCD
AMYLOIDB
xxTEST
Amyloid, Beta
CDISC Synonym(s)
Amyloid, Beta; Beta Amyloid
CDISC Definition
A measurement of the total amyloid beta in a biological specimen.
NCI Preferred Term
Beta Amyloid Measurement
xxTEST-J
アミロイドβ
CDISC Synonym(s)-J
アミロイドβ；βアミロイド
CDISC Definition-J
生物学的標本中の総アミロイドβの測定。
NCI Preferred Term-J
ベータアミロイド測定

Domain
LB
Code
C81998
xxTESTCD
AMYLOIDP
xxTEST
Amyloid P
CDISC Synonym(s)
Amyloid P; Amyloid P Component; SAP; Serum Amyloid P Component
CDISC Definition
A measurement of the total amyloid P in a biological specimen.
NCI Preferred Term
Amyloid P Measurement
xxTEST-J
アミロイドP
CDISC Synonym(s)-J
アミロイドP; アミロイドP成分; SAP; 血清アミロイドP成分
CDISC Definition-J
生物標本中のアミロイドPの総量の測定。
NCI Preferred Term-J
アミロイドP測定

Domain
IS
Code
C176313
xxTESTCD
ANAB
xxTEST
Anti-Neutrophil Antibody
CDISC Synonym(s)
Anti-Neutrophil Antibody; Anti-Neutrophil Autoantibody
CDISC Definition
A measurement of the total anti-neutrophil antibody in a biological specimen.
NCI Preferred Term
Anti-Neutrophil Antibody Measurement
xxTEST-J
抗好中球抗体
CDISC Synonym(s)-J
抗好中球抗体；抗好中球自己抗体
CDISC Definition-J
生物学的標本中の総抗好中球抗体の測定。
NCI Preferred Term-J
抗好中球抗体測定

Domain
LB
Code
C147298
xxTESTCD
ANABASN
xxTEST
Anabasine
CDISC Synonym(s)
Anabasine
CDISC Definition
A measurement of the anabasine in a specimen.
NCI Preferred Term
Anabasine Measurement
xxTEST-J
アナバシン
CDISC Synonym(s)-J
アナバシン
CDISC Definition-J
標本中のアナバシンの測定。
NCI Preferred Term-J
アナバシン測定

Domain
PT
Code
C147298
xxTESTCD
ANABSN
xxTEST
Anabasine
CDISC Synonym(s)
Anabasine
CDISC Definition
A measurement of the anabasine in a specimen.
NCI Preferred Term
Anabasine Measurement
xxTEST-J
アナバシン
CDISC Synonym(s)-J
アナバシン
CDISC Definition-J
標本中のアナバシンの測定。
NCI Preferred Term-J
アナバシン測定

Domain
LB
Code
C147299
xxTESTCD
ANAG
xxTEST
Alpha-N-acetylglucosaminidase
CDISC Synonym(s)
Alpha-N-acetylglucosaminidase
CDISC Definition
A measurement of the alpha-N-acetylglucosaminidase in a biological specimen.
NCI Preferred Term
Alpha-N-acetylglucosaminidase Measurement
xxTEST-J
α-N-アセチルグルコサミニダーゼ
CDISC Synonym(s)-J
α-N-アセチルグルコサミニダーゼ
CDISC Definition-J
生物標本中のα-N-アセチルグルコサミニダーゼの測定。
NCI Preferred Term-J
α-N-アセチルグルコサミニダーゼ測定

Domain
MB
Code
C187839
xxTESTCD
ANAPDNA
xxTEST
Anaplasma DNA
CDISC Synonym(s)
Anaplasma DNA
CDISC Definition
A measurement of the DNA from any member of the genus Anaplasma in a biological specimen.
NCI Preferred Term
Anaplasma DNA Measurement
xxTEST-J
アナプラズマDNA
CDISC Synonym(s)-J
アナプラズマDNA
CDISC Definition-J
生物標本中のアナプラズマ属の任意のメンバーの DNA の測定。
NCI Preferred Term-J
アナプラズマDNA測定

Domain
MB
Code
C187668
xxTESTCD
ANAPLASM
xxTEST
Anaplasma
CDISC Synonym(s)
Anaplasma
CDISC Definition
A measurement of the organisms that are not assigned to the species level but are assigned to the Anaplasma genus level in a biological specimen.
NCI Preferred Term
Anaplasma Measurement
xxTEST-J
アナプラズマ
CDISC Synonym(s)-J
アナプラズマ
CDISC Definition-J
生物標本において、種レベルには割り当てられていないが、アナプラズマ属レベルに割り当てられている生物の測定値。
NCI Preferred Term-J
アナプラズマ測定

Domain
MB
Code
C198302
xxTESTCD
ANARBACT
xxTEST
Anaerobic Bacteria
CDISC Synonym(s)
Anaerobic Bacteria
CDISC Definition
A measurement of the anaerobic bacteria in a biological specimen.
NCI Preferred Term
Anaerobic Bacteria Measurement
xxTEST-J
嫌気性細菌
CDISC Synonym(s)-J
嫌気性細菌
CDISC Definition-J
生物標本中の嫌気性細菌の測定。
NCI Preferred Term-J
嫌気性細菌の測定

Domain
PT
Code
C210268
xxTESTCD
ANATBN
xxTEST
Anatabine
CDISC Synonym(s)
Anatabine
CDISC Definition
A measurement of the anatabine in a specimen.
NCI Preferred Term
Anatabine Measurement
xxTEST-J
アナタビン
CDISC Synonym(s)-J
アナタビン
CDISC Definition-J
標本中のアナタビンの測定。
NCI Preferred Term-J
アナタビン測定

Domain
IS
Code
C120626
xxTESTCD
ANCAB
xxTEST
Anti-Neutrophil Cytoplasmic Antibody
CDISC Synonym(s)
Anti-Neutrophil Cytoplasmic Antibody; Anti-Neutrophil Cytoplasmic Autoantibody
CDISC Definition
A measurement of the anti-neutrophil cytoplasmic antibody in a biological specimen.
NCI Preferred Term
Anti-Neutrophil Cytoplasmic Antibody Measurement
xxTEST-J
抗好中球細胞質抗体
CDISC Synonym(s)-J
抗好中球細胞質抗体；抗好中球細胞質自己抗体
CDISC Definition-J
生物学的標本中の抗好中球細胞質抗体の測定。
NCI Preferred Term-J
抗好中球細胞質抗体測定

Domain
IS
Code
C163420
xxTESTCD
ANCIGAB
xxTEST
Anti-Neutrophil Cytoplasmic IgG Antibody
CDISC Synonym(s)
Anti-Neutrophil Cytoplasmic IgG Antibody; Anti-Neutrophil Cytoplasmic IgG Autoantibody
CDISC Definition
A measurement of the anti-neutrophil cytoplasmic IgG antibody in a biological specimen.
NCI Preferred Term
Anti-Neutrophil Cytoplasmic IgG Antibody Measurement
xxTEST-J
抗好中球細胞質IgG抗体
CDISC Synonym(s)-J
抗好中球細胞質IgG抗体；抗好中球細胞質IgG自己抗体
CDISC Definition-J
生物学的標本中の抗好中球細胞質IgG抗体の測定。
NCI Preferred Term-J
抗好中球細胞質IgG抗体測定

Domain
LB
Code
C74842
xxTESTCD
ANDSTNDL
xxTEST
Androstenediol
CDISC Synonym(s)
Androstenediol
CDISC Definition
A measurement of the androstenediol metabolite in a biological specimen.
NCI Preferred Term
Androstenediol Metabolite Measurement
xxTEST-J
アンドロステンジオール
CDISC Synonym(s)-J
アンドロステンジオール
CDISC Definition-J
生物標本中のアンドロステンジオール代謝物の測定。
NCI Preferred Term-J
アンドロステンジオール代謝物測定

Domain
LB
Code
C74843
xxTESTCD
ANDSTNDN
xxTEST
Androstenedione
CDISC Synonym(s)
4-Androstenedione; Androstenedione
CDISC Definition
A measurement of the androstenedione hormone in a biological specimen.
NCI Preferred Term
Androstenedione Measurement
xxTEST-J
アンドロステンジオン
CDISC Synonym(s)-J
4-アンドロステンジオン; アンドロステンジオン
CDISC Definition-J
生物標本中のアンドロステンジオンホルモンの測定。
NCI Preferred Term-J
アンドロステンジオンの測定

Domain
LB
Code
C186026
xxTESTCD
ANDSTRN
xxTEST
Androsterone
CDISC Synonym(s)
Androsterone
CDISC Definition
A measurement of the androsterone in a biological specimen.
NCI Preferred Term
Androsterone Measurement
xxTEST-J
アンドロステロン
CDISC Synonym(s)-J
アンドロステロン
CDISC Definition-J
生物標本中のアンドロステロンの測定。
NCI Preferred Term-J
アンドロステロン測定

Domain
CV
Code
C139038
xxTESTCD
ANEURIND
xxTEST
Aneurysm Indicator
CDISC Synonym(s)
Aneurysm Indicator
CDISC Definition
An indication as to whether there is the presence of one or more aneurysms.
NCI Preferred Term
Aneurysm Indicator
xxTEST-J
動脈瘤インジケーター
CDISC Synonym(s)-J
動脈瘤インジケーター
CDISC Definition-J
1 つ以上の動脈瘤が存在するかどうかを示します。
NCI Preferred Term-J
動脈瘤インジケーター

Domain
LB
Code
C91372
xxTESTCD
ANGLBIND
xxTEST
Antiglobulin Test, Indirect
CDISC Synonym(s)
Antiglobulin Test, Indirect; Indirect Coombs Test
CDISC Definition
A test that uses Coombs' reagent to detect the presence of anti-erythrocyte antibodies in a biological specimen.
NCI Preferred Term
Indirect Antiglobulin Test
xxTEST-J
抗グロブリン試験、間接
CDISC Synonym(s)-J
抗グロブリン試験、間接クームス試験
CDISC Definition-J
クームス試薬を使用して生物学的標本中の抗赤血球抗体の存在を検出する検査。
NCI Preferred Term-J
間接抗グロブリン試験

Domain
LB
Code
C81974
xxTESTCD
ANGLOBDR
xxTEST
Antiglobulin Test, Direct
CDISC Synonym(s)
Antiglobulin Test Polyspecific, Direct; Antiglobulin Test, Direct; Direct Coombs Test
CDISC Definition
A measurement of the antibody or complement-coated erythrocytes in a biological specimen in vivo.
NCI Preferred Term
Direct Antiglobulin Test
xxTEST-J
抗グロブリン試験、直接
CDISC Synonym(s)-J
多特異性抗グロブリン試験、直接抗グロブリン試験、直接クームス試験
CDISC Definition-J
生体内の生物学的標本内の抗体または補体で覆われた赤血球の測定。
NCI Preferred Term-J
直接抗グロブリン試験

Domain
LB
Code
C111128
xxTESTCD
ANGPT1
xxTEST
Angiopoietin 1
CDISC Synonym(s)
Angiopoietin 1
CDISC Definition
A measurement of angiopoietin 1 in a biological specimen.
NCI Preferred Term
Angiopoietin 1 Measurement
xxTEST-J
アンジオポエチン1
CDISC Synonym(s)-J
アンジオポエチン1
CDISC Definition-J
生物標本中のアンジオポエチン 1 の測定。
NCI Preferred Term-J
アンジオポエチン1測定

Domain
LB
Code
C163421
xxTESTCD
ANGPT2
xxTEST
Angiopoietin 2
CDISC Synonym(s)
ANG2; Angiopoietin 2
CDISC Definition
A measurement of angiopoietin 2 in a biological specimen.
NCI Preferred Term
Angiopoietin 2 Measurement
xxTEST-J
アンジオポエチン2
CDISC Synonym(s)-J
ANG2; アンジオポエチン2
CDISC Definition-J
生物標本中のアンジオポエチン 2 の測定。
NCI Preferred Term-J
アンジオポエチン2測定

Domain
LB
Code
C199911
xxTESTCD
ANGPTL4
xxTEST
Angiopoietin-Related Protein 4
CDISC Synonym(s)
Angiopoietin-Like 4; Angiopoietin-Related Protein 4; ARP4; FIAF; Hepatic Angiopoietin-Related Protein; HFARP; PGAR
CDISC Definition
A measurement of the angiopoietin-related protein 4 in a biological specimen.
NCI Preferred Term
Angiopoietin-Related Protein 4 Measurement
xxTEST-J
アンジオポエチン関連タンパク質4
CDISC Synonym(s)-J
アンジオポエチン様 4; アンジオポエチン関連タンパク質 4; ARP4; FIAF; 肝アンジオポエチン関連タンパク質; HFARP; PGAR
CDISC Definition-J
生物学的標本中のアンジオポエチン関連タンパク質 4 の測定。
NCI Preferred Term-J
アンジオポエチン関連タンパク質4の測定

Domain
LB
Code
C74844
xxTESTCD
ANGTNS1
xxTEST
Angiotensin I
CDISC Synonym(s)
Angiotensin I
CDISC Definition
A measurement of the angiotensin I hormone in a biological specimen.
NCI Preferred Term
Angiotensin I Measurement
xxTEST-J
アンジオテンシンI
CDISC Synonym(s)-J
アンジオテンシンI
CDISC Definition-J
生物標本中のアンジオテンシン I ホルモンの測定。
NCI Preferred Term-J
アンジオテンシンI測定

Domain
LB
Code
C74845
xxTESTCD
ANGTNS2
xxTEST
Angiotensin II
CDISC Synonym(s)
Angiotensin II
CDISC Definition
A measurement of the angiotensin II hormone in a biological specimen.
NCI Preferred Term
Angiotensin II Measurement
xxTEST-J
アンジオテンシンII
CDISC Synonym(s)-J
アンジオテンシンII
CDISC Definition-J
生物学的標本中のアンジオテンシン II ホルモンの測定。
NCI Preferred Term-J
アンジオテンシンII測定

Domain
LB
Code
C74846
xxTESTCD
ANGTNSGN
xxTEST
Angiotensinogen
CDISC Synonym(s)
Angiotensin Precursor; Angiotensinogen
CDISC Definition
A measurement of the angiotensinogen hormone in a biological specimen.
NCI Preferred Term
Angiotensinogen Measurement
xxTEST-J
アンジオテンシノーゲン
CDISC Synonym(s)-J
アンジオテンシン前駆体; アンジオテンシノーゲン
CDISC Definition-J
生物学的標本中のアンジオテンシノーゲンホルモンの測定。
NCI Preferred Term-J
アンジオテンシノーゲン測定

Domain
MB
Code
C187841
xxTESTCD
ANI
xxTEST
Aspergillus niger
CDISC Synonym(s)
Aspergillus niger
CDISC Definition
A measurement of the Aspergillus niger in a biological specimen.
NCI Preferred Term
Aspergillus niger Measurement
xxTEST-J
アスペルギルス・ニガー
CDISC Synonym(s)-J
アスペルギルス・ニガー
CDISC Definition-J
生物標本中の Aspergillus niger の測定。
NCI Preferred Term-J
アスペルギルス・ニガー測定

Domain
LB
Code
C74685
xxTESTCD
ANIONG
xxTEST
Anion Gap
CDISC Synonym(s)
Anion Gap
CDISC Definition
A computed estimate of the unmeasured anions (those other than the chloride and bicarbonate anions) in a biological specimen.
NCI Preferred Term
Anion Gap Measurement
xxTEST-J
アニオンギャップ
CDISC Synonym(s)-J
アニオンギャップ
CDISC Definition-J
生物標本中の測定されていない陰イオン（塩化物陰イオンと重炭酸塩陰イオン以外の陰イオン）の計算された推定値。
NCI Preferred Term-J
アニオンギャップ測定

Domain
LB
Code
C147303
xxTESTCD
ANIONG3
xxTEST
Anion Gap 3
CDISC Synonym(s)
Anion Gap 3
CDISC Definition
A computed estimate of the unmeasured anions (computed as sodium minus the chloride and bicarbonate) in a biological specimen.
NCI Preferred Term
Anion Gap 3 Measurement
xxTEST-J
アニオンギャップ3
CDISC Synonym(s)-J
アニオンギャップ3
CDISC Definition-J
生物標本中の測定されていない陰イオン（ナトリウムから塩化物と重炭酸塩を差し引いて計算）の計算された推定値。
NCI Preferred Term-J
アニオンギャップ3測定

Domain
LB
Code
C147304
xxTESTCD
ANIONG4
xxTEST
Anion Gap 4
CDISC Synonym(s)
Anion Gap 4
CDISC Definition
A computed estimate of the unmeasured anions (computed as the difference between the sum of serum sodium + serum potassium and the sum of the serum bicarbonate+ chloride) in a biological specimen.
NCI Preferred Term
Anion Gap 4 Measurement
xxTEST-J
アニオンギャップ4
CDISC Synonym(s)-J
アニオンギャップ4
CDISC Definition-J
生物学的標本中の測定されていない陰イオンの計算された推定値（血清ナトリウム + 血清カリウムの合計と血清重炭酸塩 + 塩化物の合計の差として計算されます）。
NCI Preferred Term-J
アニオンギャップ4測定

Domain
LB
Code
C74797
xxTESTCD
ANISO
xxTEST
Anisocytes
CDISC Synonym(s)
Anisocytes; Anisocytosis
CDISC Definition
A measurement of the variability in the size of the red blood cells in a whole blood specimen.
NCI Preferred Term
Anisocyte Measurement
xxTEST-J
異形細胞
CDISC Synonym(s)-J
不等赤血球
CDISC Definition-J
全血標本中の赤血球の大きさの変動の測定値。
NCI Preferred Term-J
異方性細胞測定

Domain
LB
Code
C161354
xxTESTCD
ANISOCHR
xxTEST
Anisochromia
CDISC Synonym(s)
Anisochromia
CDISC Definition
A measurement of the color variation of erythrocytes in a biological specimen.
NCI Preferred Term
Anisochromia Measurement
xxTEST-J
両眼性色覚異常
CDISC Synonym(s)-J
両眼性色覚異常
CDISC Definition-J
生物標本内の赤血球の色の変化の測定。
NCI Preferred Term-J
色覚異常測定

Domain
LB
Code
C184568
xxTESTCD
ANLRDN
xxTEST
Anileridine
CDISC Synonym(s)
Anileridine
CDISC Definition
A measurement of the anileridine in a biological specimen.
NCI Preferred Term
Anileridine Measurement
xxTEST-J
アニレリジン
CDISC Synonym(s)-J
アニレリジン
CDISC Definition-J
生物標本中のアニレリジンの測定。
NCI Preferred Term-J
アニレリジン測定

Domain
CV
Code
C127535
xxTESTCD
ANNAVEL
xxTEST
Annular a' Velocity
CDISC Synonym(s)
Annular a' Velocity
CDISC Definition
The peak velocity of the annular motion during late ventricular diastole (the active filling of the ventricle).
NCI Preferred Term
Annular a' Velocity
xxTEST-J
環状a'速度
CDISC Synonym(s)-J
環状a'速度
CDISC Definition-J
心室拡張後期（心室の能動充満）における環状運動の最高速度。
NCI Preferred Term-J
環状a'速度

Domain
CV
Code
C127536
xxTESTCD
ANNEVEL
xxTEST
Annular e' Velocity
CDISC Synonym(s)
Annular e' Velocity
CDISC Definition
The peak velocity of the annular motion during early ventricular diastole (the passive filling of the ventricle).
NCI Preferred Term
Annular e' Velocity
xxTEST-J
環状e'速度
CDISC Synonym(s)-J
環状e'速度
CDISC Definition-J
心室拡張期初期（心室の受動的な充満）における環状運動の最高速度。
NCI Preferred Term-J
環状e'速度

Domain
CV
Code
C139045
xxTESTCD
ANNSVEL
xxTEST
Annular S' Velocity
CDISC Synonym(s)
Annular S' Velocity
CDISC Definition
The peak velocity of the annular motion during ventricular systole.
NCI Preferred Term
Annular S' Velocity
xxTEST-J
環状S'速度
CDISC Synonym(s)-J
環状S'速度
CDISC Definition-J
心室収縮期における環状運動のピーク速度。
NCI Preferred Term-J
環状S'速度

Domain
LB
Code
C74886
xxTESTCD
ANP
xxTEST
Atrial Natriuretic Peptide
CDISC Synonym(s)
Atrial Natriuretic Peptide; Atriopeptin
CDISC Definition
A measurement of the atrial natriuretic peptide in a biological specimen.
NCI Preferred Term
Atrial Natriuretic Peptide Measurement
xxTEST-J
心房性ナトリウム利尿ペプチド
CDISC Synonym(s)-J
心房性ナトリウム利尿ペプチド；アトリオペプチン
CDISC Definition-J
生物学的標本中の心房性ナトリウム利尿ペプチドの測定。
NCI Preferred Term-J
心房性ナトリウム利尿ペプチド測定

Domain
LB
Code
C172523
xxTESTCD
ANPPROMR
xxTEST
Mid-Reg Pro-Atrial Natriuretic Peptide
CDISC Synonym(s)
Mid-Reg Pro-Atrial Natriuretic Peptide; Mid-Regional Pro-Atrial Natriuretic Peptide; MR-proANP; MRproANP
CDISC Definition
A measurement of the mid-regional pro-atrial natriuretic peptide in a biological specimen.
NCI Preferred Term
Mid-Regional Pro-Atrial Natriuretic Peptide Measurement
xxTEST-J
中等度プロ心房性ナトリウム利尿ペプチド
CDISC Synonym(s)-J
中域プロ心房性ナトリウム利尿ペプチド; 中域プロ心房性ナトリウム利尿ペプチド; MR-proANP; MRproANP
CDISC Definition-J
生物学的標本中の中部領域プロ心房性ナトリウム利尿ペプチドの測定。
NCI Preferred Term-J
中部領域プロ心房性ナトリウム利尿ペプチド測定

Domain
LB
Code
C139088
xxTESTCD
ANPPRONT
xxTEST
N-Terminal ProA-type Natriuretic Peptide
CDISC Synonym(s)
N-terminal pro-Atrial Natriuretic Peptide; N-Terminal ProA-type Natriuretic Peptide; NT proANP II
CDISC Definition
A measurement of the N-terminal proA-type natriuretic peptide in a biological specimen.
NCI Preferred Term
N-Terminal ProA-type Natriuretic Peptide Measurement
xxTEST-J
N末端プロA型ナトリウム利尿ペプチド
CDISC Synonym(s)-J
N末端プロ心房性ナトリウム利尿ペプチド；N末端プロA型ナトリウム利尿ペプチド；NTプロANP II
CDISC Definition-J
生物学的標本中の N 末端プロ A 型ナトリウム利尿ペプチドの測定。
NCI Preferred Term-J
N末端プロA型ナトリウム利尿ペプチド測定

Domain
LB
Code
C81958
xxTESTCD
ANTHRMA
xxTEST
Antithrombin Activity
CDISC Synonym(s)
Antithrombin Activity; Antithrombin III Activity
CDISC Definition
A measurement of the antithrombin activity in a biological specimen.
NCI Preferred Term
Antithrombin Activity Measurement
xxTEST-J
アンチトロンビン活性
CDISC Synonym(s)-J
アンチトロンビン活性; アンチトロンビンIII活性
CDISC Definition-J
生物学的標本中のアンチトロンビン活性の測定。
NCI Preferred Term-J
アンチトロンビン活性測定

Domain
LB
Code
C81977
xxTESTCD
ANTHRMAG
xxTEST
Antithrombin Antigen
CDISC Synonym(s)
Antithrombin; Antithrombin Antigen; Antithrombin III; Antithrombin III Antigen
CDISC Definition
A measurement of the antithrombin antigen in a biological specimen.
NCI Preferred Term
Antithrombin Antigen Measurement
xxTEST-J
アンチトロンビン抗原
CDISC Synonym(s)-J
アンチトロンビン; アンチトロンビン抗原; アンチトロンビンIII; アンチトロンビンIII抗原
CDISC Definition-J
生物学的標本中のアンチトロンビン抗原の測定。
NCI Preferred Term-J
アンチトロンビン抗原測定

Domain
LB
Code
C74691
xxTESTCD
ANTIDPRS
xxTEST
Antidepressants
CDISC Synonym(s)
Antidepressants
CDISC Definition
A measurement of any antidepressant class drug present in a biological specimen.
NCI Preferred Term
Antidepressant Measurement
xxTEST-J
抗うつ薬
CDISC Synonym(s)-J
抗うつ薬
CDISC Definition-J
生物学的標本中に存在する抗うつ薬クラスの薬物の測定。
NCI Preferred Term-J
抗うつ薬の測定

Domain
DU
Code
C102516
xxTESTCD
ANTPLANE
xxTEST
Anatomical Plane
CDISC Synonym(s)
Anatomical Plane
CDISC Definition
The position and orientation of the image slice relative to the patient-based coordinate system. (NCI)
NCI Preferred Term
Image Plane
xxTEST-J
解剖学的平面
CDISC Synonym(s)-J
解剖学的平面
CDISC Definition-J
患者ベースの座標系に対する画像スライスの位置と方向。(NCI)
NCI Preferred Term-J
イメージプレーン

Domain
LB
Code
C172525
xxTESTCD
APAPCYS
xxTEST
Acetaminophen-Cysteine Adduct
CDISC Synonym(s)
Acetaminophen Protein Adduct; Acetaminophen-Cysteine Adduct; APAP-CYS; APAP-Protein
CDISC Definition
A measurement of the acetaminophen-cysteine adducts in a biological specimen.
NCI Preferred Term
Acetaminophen-Cysteine Adduct Measurement
xxTEST-J
アセトアミノフェン-システイン付加物
CDISC Synonym(s)-J
アセトアミノフェンタンパク質付加物、アセトアミノフェンシステイン付加物、APAP-CYS、APAP-タンパク質
CDISC Definition-J
生物標本中のアセトアミノフェン-システイン付加物の測定。
NCI Preferred Term-J
アセトアミノフェン-システイン付加物の測定

Domain
LB
Code
C161372
xxTESTCD
APLASCPD
xxTEST
APTT-LA Screen to Confirm Pct Difference
CDISC Synonym(s)
APTT-LA Screen to Confirm Percent Difference; PTT-LA Screen to Confirm Pct Difference
CDISC Definition
A measurement to confirm the presence of Lupus anticoagulants, calculated as [(Screen aPTT - Confirm aPTT)/Screen aPTT]x100.
NCI Preferred Term
APTT-LA Screen to Confirm Percent Difference
xxTEST-J
APTT-LAスクリーニングによる％差異の確認
CDISC Synonym(s)-J
APTT-LA スクリーンによるパーセント差の確認; PTT-LA スクリーンによるパーセント差の確認
CDISC Definition-J
ループス抗凝固因子の存在を確認するための測定値。[(スクリーニング aPTT - 確認 aPTT)/スクリーニング aPTT]x100 として計算されます。
NCI Preferred Term-J
APTT-LAスクリーニングによるパーセント差の確認

Domain
LB
Code
C103351
xxTESTCD
APLSMA2
xxTEST
Alpha-2 Antiplasmin
CDISC Synonym(s)
Alpha-2 Antiplasmin; Alpha-2 Plasmin Inhibitor
CDISC Definition
A measurement of the alpha-2 antiplasmin in a biological specimen.
NCI Preferred Term
Alpha-2 Antiplasmin Measurement
xxTEST-J
アルファ2抗プラスミン
CDISC Synonym(s)-J
アルファ2抗プラスミン剤；アルファ2プラスミン阻害剤
CDISC Definition-J
生物学的標本中のアルファ 2 抗プラスミンの測定。
NCI Preferred Term-J
アルファ2抗プラスミン測定

Domain
LB
Code
C122094
xxTESTCD
APLSMA2A
xxTEST
Alpha-2 Antiplasmin Activity
CDISC Synonym(s)
Alpha-2 Antiplasmin Activity
CDISC Definition
A measurement of the alpha-2 antiplasmin activity in a biological specimen.
NCI Preferred Term
Alpha-2 Antiplasmin Activity Measurement
xxTEST-J
アルファ2抗プラスミン活性
CDISC Synonym(s)-J
アルファ2抗プラスミン活性
CDISC Definition-J
生物学的標本中のアルファ 2 抗プラスミン活性の測定。
NCI Preferred Term-J
アルファ2抗プラスミン活性測定

Domain
LB
Code
C124337
xxTESTCD
APOA
xxTEST
Apolipoprotein A
CDISC Synonym(s)
Apolipoprotein A
CDISC Definition
A measurement of the total apolipoprotein A in a biological specimen.
NCI Preferred Term
Apolipoprotein A Measurement
xxTEST-J
アポリポタンパク質A
CDISC Synonym(s)-J
アポリポタンパク質A
CDISC Definition-J
生物標本中の総アポリポタンパク質 A の測定。
NCI Preferred Term-J
アポリポタンパク質A測定

Domain
LB
Code
C74733
xxTESTCD
APOA1
xxTEST
Apolipoprotein A1
CDISC Synonym(s)
Apolipoprotein A1
CDISC Definition
A measurement of the apolipoprotein A1 in a biological specimen.
NCI Preferred Term
Apolipoprotein A1 Measurement
xxTEST-J
アポリポタンパク質A1
CDISC Synonym(s)-J
アポリポタンパク質A1
CDISC Definition-J
生物標本中のアポリポタンパク質 A1 の測定。
NCI Preferred Term-J
アポリポタンパク質A1測定

Domain
LB
Code
C82000
xxTESTCD
APOA2
xxTEST
Apolipoprotein AII
CDISC Synonym(s)
Apolipoprotein AII
CDISC Definition
A measurement of the apolipoprotein AII in a biological specimen.
NCI Preferred Term
Apolipoprotein AII Measurement
xxTEST-J
アポリポタンパク質AII
CDISC Synonym(s)-J
アポリポタンパク質AII
CDISC Definition-J
生物標本中のアポリポタンパク質 AII の測定。
NCI Preferred Term-J
アポリポタンパク質AII測定

Domain
LB
Code
C103354
xxTESTCD
APOA4
xxTEST
Apolipoprotein A4
CDISC Synonym(s)
Apolipoprotein A4
CDISC Definition
A measurement of the apolipoprotein A4 in a biological specimen.
NCI Preferred Term
Apolipoprotein A4 Measurement
xxTEST-J
アポリポタンパク質A4
CDISC Synonym(s)-J
アポリポタンパク質A4
CDISC Definition-J
生物標本中のアポリポタンパク質 A4 の測定。
NCI Preferred Term-J
アポリポタンパク質A4測定

Domain
LB
Code
C103355
xxTESTCD
APOA5
xxTEST
Apolipoprotein A5
CDISC Synonym(s)
Apolipoprotein A5
CDISC Definition
A measurement of the apolipoprotein A5 in a biological specimen.
NCI Preferred Term
Apolipoprotein A5 Measurement
xxTEST-J
アポリポタンパク質A5
CDISC Synonym(s)-J
アポリポタンパク質A5
CDISC Definition-J
生物標本中のアポリポタンパク質 A5 の測定。
NCI Preferred Term-J
アポリポタンパク質A5測定

Domain
LB
Code
C74734
xxTESTCD
APOB
xxTEST
Apolipoprotein B
CDISC Synonym(s)
Apolipoprotein B
CDISC Definition
A measurement of the total apolipoprotein B in a biological specimen.
NCI Preferred Term
Apolipoprotein B Measurement
xxTEST-J
アポリポタンパク質B
CDISC Synonym(s)-J
アポリポタンパク質B
CDISC Definition-J
生物標本中の総アポリポタンパク質 B の測定。
NCI Preferred Term-J
アポリポタンパク質B測定

Domain
LB
Code
C120628
xxTESTCD
APOB100
xxTEST
Apolipoprotein B100
CDISC Synonym(s)
Apolipoprotein B100
CDISC Definition
A measurement of the apolipoprotein B100 in a biological specimen.
NCI Preferred Term
Apolipoprotein B100 Measurement
xxTEST-J
アポリポタンパク質B100
CDISC Synonym(s)-J
アポリポタンパク質B100
CDISC Definition-J
生物標本中のアポリポタンパク質 B100 の測定。
NCI Preferred Term-J
アポリポタンパク質B100測定

Domain
LB
Code
C120629
xxTESTCD
APOB48
xxTEST
Apolipoprotein B48
CDISC Synonym(s)
Apolipoprotein B48
CDISC Definition
A measurement of the apolipoprotein B48 in a biological specimen.
NCI Preferred Term
Apolipoprotein B48 Measurement
xxTEST-J
アポリポタンパク質B48
CDISC Synonym(s)-J
アポリポタンパク質B48
CDISC Definition-J
生物標本中のアポリポタンパク質 B48 の測定。
NCI Preferred Term-J
アポリポタンパク質B48測定

Domain
LB
Code
C103356
xxTESTCD
APOBAPA1
xxTEST
Apolipoprotein B/Apolipoprotein A1
CDISC Synonym(s)
Apolipoprotein B/Apolipoprotein A1
CDISC Definition
A relative measurement (ratio or percentage) of the Apolipoprotein B to Apolipoprotein A1 in a biological specimen.
NCI Preferred Term
Apolipoprotein B to Apolipoprotein A1 Ratio Measurement
xxTEST-J
アポリポタンパク質B/アポリポタンパク質A1
CDISC Synonym(s)-J
アポリポタンパク質B/アポリポタンパク質A1
CDISC Definition-J
生物標本中のアポリポタンパク質 B とアポリポタンパク質 A1 の相対的な測定値 (比率またはパーセンテージ)。
NCI Preferred Term-J
アポリポタンパク質Bとアポリポタンパク質A1の比測定

Domain
LB
Code
C120630
xxTESTCD
APOC1
xxTEST
Apolipoprotein CI
CDISC Synonym(s)
Apolipoprotein CI
CDISC Definition
A measurement of the apolipoprotein CI in a biological specimen.
NCI Preferred Term
Apolipoprotein CI Measurement
xxTEST-J
アポリポタンパク質CI
CDISC Synonym(s)-J
アポリポタンパク質CI
CDISC Definition-J
生物標本中のアポリポタンパク質 CI の測定。
NCI Preferred Term-J
アポリポタンパク質CI測定

Domain
LB
Code
C100427
xxTESTCD
APOC2
xxTEST
Apolipoprotein C2
CDISC Synonym(s)
Apolipoprotein C2; Apolipoprotein CII
CDISC Definition
A measurement of the apolipoprotein C2 in a biological specimen.
NCI Preferred Term
Apolipoprotein C2 Measurement
xxTEST-J
アポリポタンパク質C2
CDISC Synonym(s)-J
アポリポタンパク質C2; アポリポタンパク質CII
CDISC Definition-J
生物標本中のアポリポタンパク質 C2 の測定。
NCI Preferred Term-J
アポリポタンパク質C2測定

Domain
LB
Code
C82001
xxTESTCD
APOC3
xxTEST
Apolipoprotein CIII
CDISC Synonym(s)
Apolipoprotein CIII
CDISC Definition
A measurement of the apolipoprotein CIII in a biological specimen.
NCI Preferred Term
Apolipoprotein CIII Measurement
xxTEST-J
アポリポタンパク質CIII
CDISC Synonym(s)-J
アポリポタンパク質CIII
CDISC Definition-J
生物標本中のアポリポタンパク質 CIII の測定。
NCI Preferred Term-J
アポリポタンパク質CIII測定

Domain
MI
Code
C181495
xxTESTCD
APOCE
xxTEST
Apoptotic Cells
CDISC Synonym(s)
Apoptotic Cells
CDISC Definition
A measurement of the apoptotic cells in a biological specimen.
NCI Preferred Term
Apoptotic Cell Count
xxTEST-J
アポトーシス細胞
CDISC Synonym(s)-J
アポトーシス細胞
CDISC Definition-J
生物標本中のアポトーシス細胞の測定。
NCI Preferred Term-J
アポトーシス細胞数

Domain
MI
Code
C181494
xxTESTCD
APOCECE
xxTEST
Apoptotic Cells/Total Cells
CDISC Synonym(s)
Apoptotic Cells/Total Cells
CDISC Definition
A relative measurement (ratio or percentage) of the apoptotic cells to total cells in a biological specimen.
NCI Preferred Term
Apoptotic Cell to Total Cell Count
xxTEST-J
アポトーシス細胞数／総細胞数
CDISC Synonym(s)-J
アポトーシス細胞数／総細胞数
CDISC Definition-J
生物標本中の総細胞数に対するアポトーシス細胞の相対的な測定値（比率またはパーセンテージ）。
NCI Preferred Term-J
アポトーシス細胞と総細胞数

Domain
LB
Code
C198281
xxTESTCD
APOD
xxTEST
Apolipoprotein D
CDISC Synonym(s)
Apolipoprotein D
CDISC Definition
A measurement of the apolipoprotein D in a biological specimen.
NCI Preferred Term
Apolipoprotein D Measurement
xxTEST-J
アポリポタンパク質D
CDISC Synonym(s)-J
アポリポタンパク質D
CDISC Definition-J
生物標本中のアポリポタンパク質 D の測定。
NCI Preferred Term-J
アポリポタンパク質D測定

Domain
LB
Code
C82002
xxTESTCD
APOE
xxTEST
Apolipoprotein E
CDISC Synonym(s)
Apolipoprotein E
CDISC Definition
A measurement of the apolipoprotein E in a biological specimen.
NCI Preferred Term
Apolipoprotein E Measurement
xxTEST-J
アポリポタンパク質E
CDISC Synonym(s)-J
アポリポタンパク質E
CDISC Definition-J
生物標本中のアポリポタンパク質 E の測定。
NCI Preferred Term-J
アポリポタンパク質E測定

Domain
LB
Code
C92293
xxTESTCD
APOE4
xxTEST
Apolipoprotein E4
CDISC Synonym(s)
Apolipoprotein E4
CDISC Definition
A measurement of the apolipoprotein E4 in a biological specimen.
NCI Preferred Term
Apolipoprotein E4 Measurement
xxTEST-J
アポリポタンパク質E4
CDISC Synonym(s)-J
アポリポタンパク質E4
CDISC Definition-J
生物標本中のアポリポタンパク質 E4 の測定。
NCI Preferred Term-J
アポリポタンパク質E4測定

Domain
LB
Code
C82003
xxTESTCD
APOH
xxTEST
Apolipoprotein H
CDISC Synonym(s)
Apolipoprotein H
CDISC Definition
A measurement of the apolipoprotein H in a biological specimen.
NCI Preferred Term
Apolipoprotein H Measurement
xxTEST-J
アポリポタンパク質H
CDISC Synonym(s)-J
アポリポタンパク質H
CDISC Definition-J
生物標本中のアポリポタンパク質 H の測定。
NCI Preferred Term-J
アポリポタンパク質H測定

Domain
LB
Code
C100428
xxTESTCD
APOJ
xxTEST
Apolipoprotein J
CDISC Synonym(s)
Apolipoprotein J; Clusterin
CDISC Definition
A measurement of the apolipoprotein J in a biological specimen.
NCI Preferred Term
Apolipoprotein J Measurement
xxTEST-J
アポリポタンパク質J
CDISC Synonym(s)-J
アポリポタンパク質J; クラステリン
CDISC Definition-J
生物標本中のアポリポタンパク質 J の測定。
NCI Preferred Term-J
アポリポタンパク質J測定

Domain
LB
Code
C111130
xxTESTCD
APOJCRT
xxTEST
Apolipoprotein J/Creatinine
CDISC Synonym(s)
Apolipoprotein J/Creatinine; Clusterin/Creatinine
CDISC Definition
A relative measurement (ratio or percentage) of the apolipoprotein J to creatinine in a biological specimen.
NCI Preferred Term
Apolipoprotein J to Creatinine Ratio Measurement
xxTEST-J
アポリポタンパク質J/クレアチニン
CDISC Synonym(s)-J
アポリポタンパク質J/クレアチニン; クラステリン/クレアチニン
CDISC Definition-J
生物標本中のアポリポタンパク質 J とクレアチニンの相対的な測定値 (比率またはパーセンテージ)。
NCI Preferred Term-J
アポリポタンパク質Jとクレアチニンの比の測定

Domain
CV
Code
C139036
xxTESTCD
APOSCSEV
xxTEST
Aortic Postductal Coarctation Severity
CDISC Synonym(s)
Aortic Postductal Coarctation Severity
CDISC Definition
The assessment of the severity of postductal aortic coarctation.
NCI Preferred Term
Aortic Postductal Coarctation Severity
xxTEST-J
大動脈管後狭窄症の重症度
CDISC Synonym(s)-J
大動脈管後狭窄症の重症度
CDISC Definition-J
管後大動脈縮窄症の重症度の評価。
NCI Preferred Term-J
大動脈管後狭窄症の重症度

Domain
LB
Code
C119268
xxTESTCD
APPA
xxTEST
Amyloid Alpha Precursor Protein
CDISC Synonym(s)
Amyloid Alpha Precursor Protein
CDISC Definition
A measurement of the amyloid alpha precursor protein present in a biological specimen.
NCI Preferred Term
Amyloid Alpha Precursor Protein Measurement
xxTEST-J
アミロイドα前駆タンパク質
CDISC Synonym(s)-J
アミロイドα前駆タンパク質
CDISC Definition-J
生物学的標本中に存在するアミロイドα前駆体タンパク質の測定。
NCI Preferred Term-J
アミロイドα前駆体タンパク質測定

Domain
LB
Code
C105438
xxTESTCD
APPB
xxTEST
Amyloid Beta Precursor Protein
CDISC Synonym(s)
Amyloid Beta Precursor; Amyloid Beta Precursor Protein; Amyloid Precursor Beta; Amyloid Precursor Protein
CDISC Definition
A measurement of the amyloid beta precursor protein present in a biological specimen.
NCI Preferred Term
Amyloid Beta Precursor Protein Measurement
xxTEST-J
アミロイドβ前駆タンパク質
CDISC Synonym(s)-J
アミロイドβ前駆体; アミロイドβ前駆体タンパク質; アミロイドβ前駆体; アミロイド前駆体タンパク質
CDISC Definition-J
生物学的標本中に存在するアミロイドβ前駆体タンパク質の測定。
NCI Preferred Term-J
アミロイドβ前駆体タンパク質測定

Domain
LB
Code
C179695
xxTESTCD
APPEAR
xxTEST
Specimen Appearance
CDISC Synonym(s)
Specimen Appearance
CDISC Definition
The outward or visible aspect of a specimen.
NCI Preferred Term
Specimen Appearance Assessment
xxTEST-J
標本の外観
CDISC Synonym(s)-J
標本の外観
CDISC Definition-J
標本の外側または目に見える部分。
NCI Preferred Term-J
標本の外観評価

Domain
FA
Code
C25377
xxTESTCD
APPEAR
xxTEST
Appearance
CDISC Synonym(s)
Aper
CDISC Definition
The outward or visible aspect of an entity.
NCI Preferred Term
Appearance
xxTEST-J
外観
CDISC Synonym(s)-J
アパー
CDISC Definition-J
実体の外面または目に見える側面。
NCI Preferred Term-J
外観

Domain
LB
Code
C119269
xxTESTCD
APPT
xxTEST
Total Amyloid Precursor Protein
CDISC Synonym(s)
Total Amyloid Precursor Protein
CDISC Definition
A measurement of the total amyloid precursor protein present in a biological specimen.
NCI Preferred Term
Total Amyloid Precursor Protein Measurement
xxTEST-J
総アミロイド前駆体タンパク質
CDISC Synonym(s)-J
総アミロイド前駆体タンパク質
CDISC Definition-J
生物学的標本中に存在するアミロイド前駆体タンパク質の総量の測定。
NCI Preferred Term-J
総アミロイド前駆体タンパク質測定

Domain
LB
Code
C184578
xxTESTCD
APRBRBTL
xxTEST
Aprobarbital
CDISC Synonym(s)
Aprobarbital
CDISC Definition
A measurement of the aprobarbital in a biological specimen.
NCI Preferred Term
Aprobarbital Measurement
xxTEST-J
アプロバルビタール
CDISC Synonym(s)-J
アプロバルビタール
CDISC Definition-J
生物学的標本中のアプロバルビタール濃度の測定。
NCI Preferred Term-J
アプロバルビタール測定

Domain
CV
Code
C139034
xxTESTCD
APRECSEV
xxTEST
Aortic Preductal Coarctation Severity
CDISC Synonym(s)
Aortic Preductal Coarctation Severity
CDISC Definition
The assessment of the severity of preductal aortic coarctation.
NCI Preferred Term
Aortic Preductal Coarctation Severity
xxTEST-J
大動脈管前狭窄症の重症度
CDISC Synonym(s)-J
大動脈管前狭窄症の重症度
CDISC Definition-J
動脈管前狭窄症の重症度の評価。
NCI Preferred Term-J
大動脈管前狭窄症の重症度

Domain
LB
Code
C156512
xxTESTCD
APRI
xxTEST
AST to Platelet Ratio Index
CDISC Synonym(s)
APRI Score; AST to Platelet Ratio Index
CDISC Definition
A calculation that indicates the likely presence of liver cirrhosis and fibrosis, measured as the relative measurement of aspartate aminotransferase (AST) to AST upper limit of normal, divided by the platelet count, and multiplied by 100.
NCI Preferred Term
Aspartate Aminotransferase to Platelet Ratio Index
xxTEST-J
AST対血小板比指数
CDISC Synonym(s)-J
APRIスコア；AST対血小板比指数
CDISC Definition-J
肝硬変および線維症が存在する可能性を示す計算。AST の正常上限値に対するアスパラギン酸アミノトランスフェラーゼ (AST) の相対測定値として測定され、血小板数で割り、100 を掛けます。
NCI Preferred Term-J
アスパラギン酸アミノトランスフェラーゼ対血小板比指数

Domain
LB
Code
C111123
xxTESTCD
APRIL
xxTEST
A Proliferation-Inducing Ligand
CDISC Synonym(s)
A Proliferation-Inducing Ligand; Soluble CD256; TNFSF13; Tumor Necrosis Factor Ligand Superfamily Member 13
CDISC Definition
A measurement of the a proliferation-inducing ligand in a biological specimen.
NCI Preferred Term
A Proliferation-Inducing Ligand Measurement
xxTEST-J
増殖誘導リガンド
CDISC Synonym(s)-J
増殖誘導リガンド; 可溶性CD256; TNFSF13; 腫瘍壊死因子リガンドスーパーファミリーメンバー13
CDISC Definition-J
生物標本中の増殖誘導リガンドの測定。
NCI Preferred Term-J
増殖誘導リガンド測定

Domain
LB
Code
C100471
xxTESTCD
APROTCRS
xxTEST
Activated Protein C Resistance
CDISC Synonym(s)
Activated Protein C Resistance; Factor V Leiden Screen
CDISC Definition
A measurement of the resistance in the anticoagulation response to activated protein C in a biological specimen.
NCI Preferred Term
Activated Protein C Resistance Measurement
xxTEST-J
活性化プロテインC抵抗性
CDISC Synonym(s)-J
活性化プロテインC抵抗性；第V因子ライデンスクリーニング
CDISC Definition-J
生物標本中の活性化プロテイン C に対する抗凝固反応の抵抗の測定。
NCI Preferred Term-J
活性化プロテインC抵抗性測定

Domain
CV
Code
C139042
xxTESTCD
APSE
xxTEST
Annular Plane Systolic Excursion
CDISC Synonym(s)
Annular Plane Systolic Excursion
CDISC Definition
The longitudinal displacement of a cardiac valve annulus toward the apex of the heart.
NCI Preferred Term
Annular Plane Systolic Excursion
xxTEST-J
環状面収縮期移動
CDISC Synonym(s)-J
環状面収縮期移動
CDISC Definition-J
心臓の頂点に向かって心臓弁輪が縦方向に変位すること。
NCI Preferred Term-J
環状面収縮期移動

Domain
LB
Code
C209578
xxTESTCD
APSSCORE
xxTEST
Amyloid Probability Score
CDISC Synonym(s)
Amyloid Probability Score; APS; Plasma Amyloid Probability Score
CDISC Definition
A probability score representing the estimated likelihood that the patient is amyloid positive on PET imaging.
NCI Preferred Term
Amyloid Probability Score
xxTEST-J
アミロイド確率スコア
CDISC Synonym(s)-J
アミロイド確率スコア; APS; 血漿アミロイド確率スコア
CDISC Definition-J
PET 画像で患者がアミロイド陽性である可能性の推定値を表す確率スコア。
NCI Preferred Term-J
アミロイド確率スコア

Domain
LB
Code
C38462
xxTESTCD
APTT
xxTEST
Activated Partial Thromboplastin Time
CDISC Synonym(s)
Activated Partial Thromboplastin Time
CDISC Definition
A measurement of the length of time that it takes for clotting to occur when activating reagents are added to a biological specimen. The test is partial due to the absence of tissue factor (Factor III) from the reaction mixture.
NCI Preferred Term
Activated Partial Thromboplastin Time
xxTEST-J
活性化部分トロンボプラスチン時間
CDISC Synonym(s)-J
活性化部分トロンボプラスチン時間
CDISC Definition-J
活性化試薬を生体試料に加え、凝固が起こるまでの時間を測定する検査です。反応混合物に組織因子（第III因子）が含まれていないため、この検査は部分的なものです。
NCI Preferred Term-J
活性化部分トロンボプラスチン時間

Domain
LB
Code
C161369
xxTESTCD
APTTLAAC
xxTEST
APTT-LA Actual/Control
CDISC Synonym(s)
APTT-LA Actual/Control; Lupus Anticoagulant Sensitive APTT Actual/Control
CDISC Definition
A relative measurement (ratio or percentage) of the Lupus anticoagulant sensitive APTT in a subject's specimen when compared to a control specimen.
NCI Preferred Term
APTT-LA Actual to Control Ratio Measurement
xxTEST-J
APTT-LA 実測値/対照値
CDISC Synonym(s)-J
APTT-LA 実測値/対照値；ループス抗凝固薬感受性APTT 実測値/対照値
CDISC Definition-J
被験者の検体と対照検体とを比較した場合の、ループス抗凝固剤感受性 APTT の相対的な測定値 (比率またはパーセンテージ)。
NCI Preferred Term-J
APTT-LA 実測値と対照値比の測定

Domain
LB
Code
C102277
xxTESTCD
APTTLAS
xxTEST
Lupus Anticoagulant Sensitive APTT
CDISC Synonym(s)
APTT-LA; APTTLA; Lupus Anticoagulant Sensitive APTT
CDISC Definition
A measurement of the length of time that it takes for clotting to occur when a lupus sensitive reagent is added to a plasma specimen.
NCI Preferred Term
Lupus Anticoagulant Sensitive APTT Measurement
xxTEST-J
ループス抗凝固剤感受性APTT
CDISC Synonym(s)-J
APTT-LA; APTTLA; ループス抗凝固剤感受性APTT
CDISC Definition-J
ループス感受性試薬を血漿標本に加えたときに凝固が起こるまでにかかる時間の長さを測定します。
NCI Preferred Term-J
ループス抗凝固薬感受性APTT測定

Domain
LB
Code
C98862
xxTESTCD
APTTSTND
xxTEST
Activated PTT/Standard
CDISC Synonym(s)
Activated Partial Thromboplastin Time/Standard Thromboplastin Time; Activated PTT/Standard; Activated PTT/Standard PTT
CDISC Definition
A relative measurement (ratio or percentage) of the subject's activated partial thromboplastin time to a standard or control partial thromboplastin time.
NCI Preferred Term
Activated PTT/Standard Ratio Measurement
xxTEST-J
アクティブ化されたPTT/標準
CDISC Synonym(s)-J
活性化部分トロンボプラスチン時間/標準トロンボプラスチン時間; 活性化PTT/標準; 活性化PTT/標準PTT
CDISC Definition-J
被験者の活性化部分トロンボプラスチン時間と標準部分トロンボプラスチン時間またはコントロール部分トロンボプラスチン時間に対する相対的な測定値 (比率またはパーセンテージ)。
NCI Preferred Term-J
アクティブPTT/標準比測定

Domain
DU
Code
C106533
xxTESTCD
AQMTRXSZ
xxTEST
Image Acquisition Matrix Size
CDISC Synonym(s)
Image Acquisition Matrix Size
CDISC Definition
A measurement of the number of data fields, pixels or data points assigned to each linear dimension in a digital image. (NCI)
NCI Preferred Term
Image Acquisition Matrix Size
xxTEST-J
画像取得マトリックスサイズ
CDISC Synonym(s)-J
画像取得マトリックスサイズ
CDISC Definition-J
デジタル画像内の各線形次元に割り当てられたデータ フィールド、ピクセル、またはデータ ポイントの数の測定値。(NCI)
NCI Preferred Term-J
画像取得マトリックスサイズ

Domain
LB
Code
C102259
xxTESTCD
ARA
xxTEST
Arachidonic Acid
CDISC Synonym(s)
Arachidonic Acid
CDISC Definition
A measurement of the arachidonic acid present in a biological specimen.
NCI Preferred Term
Arachidonic Acid Measurement
xxTEST-J
アラキドン酸
CDISC Synonym(s)-J
アラキドン酸
CDISC Definition-J
生物標本中に存在するアラキドン酸の測定。
NCI Preferred Term-J
アラキドン酸測定

Domain
IS
Code
C182150
xxTESTCD
ARAB
xxTEST
Allergen-induced Antibody
CDISC Synonym(s)
Allergen-induced Antibody
CDISC Definition
A measurement of the binding allergen-induced antibody in a biological specimen.
NCI Preferred Term
Allergen-induced Antibody Measurement
xxTEST-J
アレルゲン誘発抗体
CDISC Synonym(s)-J
アレルゲン誘発抗体
CDISC Definition-J
生物学的標本中のアレルゲン誘発結合抗体の測定。
NCI Preferred Term-J
アレルゲン誘発抗体測定

Domain
MI
Code
C178037
xxTESTCD
ARCHCHG
xxTEST
Architectural Changes
CDISC Synonym(s)
Architectural Changes
CDISC Definition
An evaluation of tissue architectural changes in a biological specimen.
NCI Preferred Term
Architectural Changes Assessment
xxTEST-J
アーキテクチャの変更
CDISC Synonym(s)-J
アーキテクチャの変更
CDISC Definition-J
生物標本における組織構造の変化の評価。
NCI Preferred Term-J
アーキテクチャ変更評価

Domain
TR
Code
C25244
xxTESTCD
AREA
xxTEST
Area
CDISC Synonym(s)
Area
CDISC Definition
The extent of a 2-dimensional surface enclosed within a boundary. (NCI)
NCI Preferred Term
Area
xxTEST-J
エリア
CDISC Synonym(s)-J
エリア
CDISC Definition-J
境界内に囲まれた 2 次元面の範囲。(NCI)
NCI Preferred Term-J
エリア

Domain
BS
Code
C25244
xxTESTCD
AREA
xxTEST
Area
CDISC Synonym(s)
Area
CDISC Definition
The extent of a 2-dimensional surface enclosed within a boundary. (NCI)
NCI Preferred Term
Area
xxTEST-J
エリア
CDISC Synonym(s)-J
エリア
CDISC Definition-J
境界内に囲まれた 2 次元面の範囲。(NCI)
NCI Preferred Term-J
エリア

Domain
MI
Code
C25244
xxTESTCD
AREA
xxTEST
Area
CDISC Synonym(s)
Area
CDISC Definition
The extent of a 2-dimensional surface enclosed within a boundary. (NCI)
NCI Preferred Term
Area
xxTEST-J
エリア
CDISC Synonym(s)-J
エリア
CDISC Definition-J
境界内に囲まれた 2 次元面の範囲。(NCI)
NCI Preferred Term-J
エリア

Domain
CV
Code
C127537
xxTESTCD
AREAEVD
xxTEST
Area, End Ventricular Diastole
CDISC Synonym(s)
Area, End Ventricular Diastole
CDISC Definition
The 2-dimensional surface enclosed within a boundary of a cardiovascular structure and measured at end ventricular diastole.
NCI Preferred Term
Area at End Ventricular Diastole
xxTEST-J
心室拡張期終末部面積
CDISC Synonym(s)-J
心室拡張期終末部面積
CDISC Definition-J
心血管構造の境界内に囲まれ、心室拡張期末に測定される 2 次元表面。
NCI Preferred Term-J
心室拡張期終末面積

Domain
CV
Code
C127538
xxTESTCD
AREAEVS
xxTEST
Area, End Ventricular Systole
CDISC Synonym(s)
Area, End Ventricular Systole
CDISC Definition
The 2-dimensional surface enclosed within a boundary of a cardiovascular structure and measured at end ventricular systole.
NCI Preferred Term
Area at End Ventricular Systole
xxTEST-J
領域、心室収縮終期
CDISC Synonym(s)-J
領域、心室収縮終期
CDISC Definition-J
心血管構造の境界内に囲まれ、心室収縮末期に測定される 2 次元表面。
NCI Preferred Term-J
心室収縮終末部の面積

Domain
LB
Code
C199888
xxTESTCD
AREG
xxTEST
Amphiregulin
CDISC Synonym(s)
Amphiregulin; Schwannoma-Derived Growth Factor; SDGF
CDISC Definition
A measurement of the amphiregulin in a biological specimen.
NCI Preferred Term
Amphiregulin Measurement
xxTEST-J
アンフィレグリン
CDISC Synonym(s)-J
アンフィレグリン;神経鞘腫由来成長因子; SDGF
CDISC Definition-J
生物標本中のアンフィレグリンの測定。
NCI Preferred Term-J
アンフィレグリン測定

Domain
LB
Code
C122095
xxTESTCD
ARG
xxTEST
Arginine
CDISC Synonym(s)
Arginine
CDISC Definition
A measurement of the arginine in a biological specimen.
NCI Preferred Term
Arginine Measurement
xxTEST-J
アルギニン
CDISC Synonym(s)-J
アルギニン
CDISC Definition-J
生物標本中のアルギニンの測定。
NCI Preferred Term-J
アルギニン測定

Domain
CV
Code
C127539
xxTESTCD
ARGJWLVD
xxTEST
Aortic Regur Jet Width LVOT Diam Rt
CDISC Synonym(s)
Aortic Regur Jet Width LVOT Diam Rt; Aortic Regurgitant Jet Width to Left Ventricular Outflow Tract Diameter Ratio
CDISC Definition
A relative measurement (ratio) of the aortic regurgitant jet width to left ventricular outflow tract (LVOT) diameter.
NCI Preferred Term
Aortic Regurgitant Jet Width to Left Ventricular Outflow Tract Diameter Ratio
xxTEST-J
大動脈弁逆流ジェット幅 LVOT 直径 右
CDISC Synonym(s)-J
大動脈逆流ジェット幅 LVOT 径 Rt; 大動脈逆流ジェット幅と左室流出路径の比
CDISC Definition-J
大動脈逆流ジェット幅と左室流出路 (LVOT) 径の相対測定値 (比率)。
NCI Preferred Term-J
大動脈逆流ジェット幅と左室流出路径の比

Domain
LB
Code
C154763
xxTESTCD
ARGSAC
xxTEST
Argininosuccinic Acid
CDISC Synonym(s)
Argininosuccinate; Argininosuccinic Acid
CDISC Definition
A measurement of the argininosuccinic acid in a biological specimen.
NCI Preferred Term
Argininosuccinic Acid Measurement
xxTEST-J
アルギニノコハク酸
CDISC Synonym(s)-J
アルギニノコハク酸
CDISC Definition-J
生物標本中のアルギニノコハク酸の測定。
NCI Preferred Term-J
アルギニノコハク酸測定

Domain
IS
Code
C187776
xxTESTCD
ARIGAAB
xxTEST
Allergen-induced IgA Antibody
CDISC Synonym(s)
Allergen-induced IgA Antibody
CDISC Definition
A measurement of the binding allergen-induced IgA antibody in a biological specimen.
NCI Preferred Term
Allergen-induced IgA Antibody Measurement
xxTEST-J
アレルゲン誘発性IgA抗体
CDISC Synonym(s)-J
アレルゲン誘発性IgA抗体
CDISC Definition-J
生物標本中のアレルゲン誘導性 IgA 抗体の結合の測定。
NCI Preferred Term-J
アレルゲン誘発IgA抗体測定

Domain
IS
Code
C181398
xxTESTCD
ARIGEAB
xxTEST
Allergen-induced IgE Antibody
CDISC Synonym(s)
Allergen-induced IgE Antibody
CDISC Definition
A measurement of the binding allergen-induced IgE antibody in a biological specimen.
NCI Preferred Term
Allergen-induced IgE Antibody Measurement
xxTEST-J
アレルゲン誘発性IgE抗体
CDISC Synonym(s)-J
アレルゲン誘発性IgE抗体
CDISC Definition-J
生物学的標本中の結合アレルゲン誘発 IgE 抗体の測定。
NCI Preferred Term-J
アレルゲン誘発IgE抗体測定

Domain
IS
Code
C187778
xxTESTCD
ARIGG4AB
xxTEST
Allergen-induced IgG4 Antibody
CDISC Synonym(s)
Allergen-induced IgG4 Antibody
CDISC Definition
A measurement of the binding allergen-induced IgG4 antibody in a biological specimen.
NCI Preferred Term
Allergen-induced IgG4 Antibody Measurement
xxTEST-J
アレルゲン誘発IgG4抗体
CDISC Synonym(s)-J
アレルゲン誘発IgG4抗体
CDISC Definition-J
生物学的標本中の結合アレルゲン誘発IgG4抗体の測定。
NCI Preferred Term-J
アレルゲン誘発IgG4抗体測定

Domain
IS
Code
C187777
xxTESTCD
ARIGGAB
xxTEST
Allergen-induced IgG Antibody
CDISC Synonym(s)
Allergen-induced IgG Antibody
CDISC Definition
A measurement of the binding allergen-induced IgG antibody in a biological specimen.
NCI Preferred Term
Allergen-induced IgG Antibody Measurement
xxTEST-J
アレルゲン誘発IgG抗体
CDISC Synonym(s)-J
アレルゲン誘発IgG抗体
CDISC Definition-J
生物学的標本中のアレルゲン誘導性 IgG 抗体の結合の測定。
NCI Preferred Term-J
アレルゲン誘発IgG抗体測定

Domain
IS
Code
C187779
xxTESTCD
ARIGMAB
xxTEST
Allergen-induced IgM Antibody
CDISC Synonym(s)
Allergen-induced IgM Antibody
CDISC Definition
A measurement of the binding allergen-induced IgM antibody in a biological specimen.
NCI Preferred Term
Allergen-induced IgM Antibody Measurement
xxTEST-J
アレルゲン誘発性IgM抗体
CDISC Synonym(s)-J
アレルゲン誘発性IgM抗体
CDISC Definition-J
生物学的標本中の結合アレルゲン誘発性 IgM 抗体の測定。
NCI Preferred Term-J
アレルゲン誘発IgM抗体測定

Domain
VS
Code
C181553
xxTESTCD
ARMSPAN
xxTEST
Arm Span
CDISC Synonym(s)
Arm Span; Armspan; Reach; Wingspan
CDISC Definition
A measurement of the length from the tip of the middle finger on one hand to the tip of the middle finger on the other hand with the individual standing against the wall with both arms abducted to 90 degrees, the elbows and wrists extended, and the palms
NCI Preferred Term
Arm Span
xxTEST-J
腕の長さ
CDISC Synonym(s)-J
腕幅; 腕を広げる; 届く範囲; 翼を広げる
CDISC Definition-J
壁に向かって両腕を90度に曲げ、肘と手首を伸ばし、手のひらを曲げた状態で、片方の手の中指の先端からもう一方の手の中指の先端までの長さを測る。
NCI Preferred Term-J
腕の長さ

Domain
LB
Code
C177974
xxTESTCD
ARPIPZL
xxTEST
Aripiprazole
CDISC Synonym(s)
Aripiprazole
CDISC Definition
A measurement of the aripiprazole in a biological specimen.
NCI Preferred Term
Aripiprazole Measurement
xxTEST-J
アリピプラゾール
CDISC Synonym(s)-J
アリピプラゾール
CDISC Definition-J
生物標本中のアリピプラゾールの測定。
NCI Preferred Term-J
アリピプラゾール測定

Domain
LB
Code
C124338
xxTESTCD
ARR
xxTEST
Aldosterone/Renin Activity
CDISC Synonym(s)
Aldosterone/Renin Activity
CDISC Definition
A relative measurement (ratio) of the aldosterone to renin activity in a biological specimen.
NCI Preferred Term
Aldosterone to Renin Activity Ratio Measurement
xxTEST-J
アルドステロン/レニン活性
CDISC Synonym(s)-J
アルドステロン/レニン活性
CDISC Definition-J
生物学的標本におけるアルドステロンとレニンの活性の相対的な測定値（比率）。
NCI Preferred Term-J
アルドステロン対レニン活性比測定

Domain
LB
Code
C147305
xxTESTCD
ARSENIC
xxTEST
Arsenic
CDISC Synonym(s)
Arsenic; As
CDISC Definition
A measurement of the arsenic in a specimen.
NCI Preferred Term
Arsenic Measurement
xxTEST-J
砒素
CDISC Synonym(s)-J
ヒ素; As
CDISC Definition-J
標本中のヒ素の測定。
NCI Preferred Term-J
ヒ素測定

Domain
PT
Code
C147305
xxTESTCD
ARSENIC
xxTEST
Arsenic
CDISC Synonym(s)
Arsenic; As
CDISC Definition
A measurement of the arsenic in a specimen.
NCI Preferred Term
Arsenic Measurement
xxTEST-J
砒素
CDISC Synonym(s)-J
ヒ素; As
CDISC Definition-J
標本中のヒ素の測定。
NCI Preferred Term-J
ヒ素測定

Domain
MI
Code
C135463
xxTESTCD
ARTLRHYT
xxTEST
Arteriolar Hyaline Thickening
CDISC Synonym(s)
Arteriolar Hyaline Thickening
CDISC Definition
An evaluation of the arteriolar hyaline thickening of vessels in a biological specimen.
NCI Preferred Term
Arteriolar Hyaline Thickening Assessment
xxTEST-J
細動脈硝子肥厚
CDISC Synonym(s)-J
細動脈硝子肥厚
CDISC Definition-J
生物標本における血管の細動脈硝子肥厚の評価。
NCI Preferred Term-J
細動脈硝子肥厚の評価

Domain
MI
Code
C184703
xxTESTCD
ARV7
xxTEST
Androgen Receptor Variant 7
CDISC Synonym(s)
Androgen Receptor Variant 7; AR-V7
CDISC Definition
A measurement of the androgen receptor variant 7 in a biological specimen.
NCI Preferred Term
Androgen Receptor Variant 7 Measurement
xxTEST-J
アンドロゲン受容体変異体7
CDISC Synonym(s)-J
アンドロゲン受容体バリアント7; AR-V7
CDISC Definition-J
生物学的標本中のアンドロゲン受容体変異体 7 の測定。
NCI Preferred Term-J
アンドロゲン受容体変異体7の測定

Domain
MI
Code
C200019
xxTESTCD
ASDCE
xxTEST
Total Assessed Cells
CDISC Synonym(s)
Total Assessed Cells; Total Cells
CDISC Definition
A measurement of the total number of cells that are observed during the evaluation, or assessed as part of the protocol-defined assay.
NCI Preferred Term
Total Assessed Cells Count
xxTEST-J
評価対象細胞総数
CDISC Synonym(s)-J
評価対象細胞総数；細胞総数
CDISC Definition-J
評価中に観察される、またはプロトコルで定義されたアッセイの一部として評価される細胞の総数の測定値。
NCI Preferred Term-J
評価された細胞の総数

Domain
LB
Code
C177985
xxTESTCD
ASENAPN
xxTEST
Asenapine
CDISC Synonym(s)
Asenapine
CDISC Definition
A measurement of the asenapine in a biological specimen.
NCI Preferred Term
Asenapine Measurement
xxTEST-J
アセナピン
CDISC Synonym(s)-J
アセナピン
CDISC Definition-J
生物標本中のアセナピンの測定。
NCI Preferred Term-J
アセナピン測定

Domain
MI
Code
C201447
xxTESTCD
ASGMGIND
xxTEST
Adequate Surgical Margins Indicator
CDISC Synonym(s)
Adequate Surgical Margins Indicator
CDISC Definition
An indication as to whether there is adequate distance of apparently non-tumorous tissue from the resected tumor.
NCI Preferred Term
Adequate Surgical Margin Indicator
xxTEST-J
適切な手術マージン指標
CDISC Synonym(s)-J
適切な手術マージン指標
CDISC Definition-J
切除された腫瘍から明らかに非腫瘍性の組織までの距離が十分にあるかどうかを示します。
NCI Preferred Term-J
適切な手術マージン指標

Domain
LB
Code
C163422
xxTESTCD
ASMACT
xxTEST
Alpha-Smooth Muscle Actin
CDISC Synonym(s)
Alpha-Actin 2; Alpha-SMA; Alpha-Smooth Muscle Actin
CDISC Definition
A measurement of the alpha-smooth muscle actin in a biological specimen.
NCI Preferred Term
Alpha-Smooth Muscle Actin Measurement
xxTEST-J
α-平滑筋アクチン
CDISC Synonym(s)-J
アルファアクチン2、アルファSMA、アルファ平滑筋アクチン
CDISC Definition-J
生物標本中のα平滑筋アクチンの測定。
NCI Preferred Term-J
α-平滑筋アクチン測定

Domain
LB
Code
C122096
xxTESTCD
ASN
xxTEST
Asparagine
CDISC Synonym(s)
Asparagine
CDISC Definition
A measurement of the asparagine in a biological specimen.
NCI Preferred Term
Asparagine Measurement
xxTEST-J
アスパラギン
CDISC Synonym(s)-J
アスパラギン
CDISC Definition-J
生物標本中のアスパラギンの測定。
NCI Preferred Term-J
アスパラギン測定

Domain
LB
Code
C122097
xxTESTCD
ASP
xxTEST
Aspartic Acid
CDISC Synonym(s)
Aspartate; Aspartic Acid
CDISC Definition
A measurement of the aspartic acid in a biological specimen.
NCI Preferred Term
Aspartic Acid Measurement
xxTEST-J
アスパラギン酸
CDISC Synonym(s)-J
アスパラギン酸
CDISC Definition-J
生物標本中のアスパラギン酸の測定。
NCI Preferred Term-J
アスパラギン酸測定

Domain
MB
Code
C189540
xxTESTCD
ASPAG
xxTEST
Aspergillus Antigen
CDISC Synonym(s)
Aspergillus Antigen
CDISC Definition
A measurement of the antigen from any member of the genus Aspergillus in a biological specimen.
NCI Preferred Term
Aspergillus Antigen Measurement
xxTEST-J
アスペルギルス抗原
CDISC Synonym(s)-J
アスペルギルス抗原
CDISC Definition-J
生物標本中のアスペルギルス属の任意の菌の抗原の測定。
NCI Preferred Term-J
アスペルギルス抗原測定

Domain
MB
Code
C198303
xxTESTCD
ASPDNA
xxTEST
Aspergillus DNA
CDISC Synonym(s)
Aspergillus DNA
CDISC Definition
A measurement of the DNA from any member of the genus Aspergillus in a biological specimen.
NCI Preferred Term
Aspergillus DNA Measurement
xxTEST-J
アスペルギルスDNA
CDISC Synonym(s)-J
アスペルギルスDNA
CDISC Definition-J
生物標本中のアスペルギルス属の任意のメンバーの DNA の測定。
NCI Preferred Term-J
アスペルギルスDNA測定

Domain
MB
Code
C172528
xxTESTCD
ASPERGIL
xxTEST
Aspergillus
CDISC Synonym(s)
Aspergillus
CDISC Definition
A measurement of the organisms that are not assigned to the species level but are assigned to the Aspergillus genus level in a biological specimen.
NCI Preferred Term
Aspergillus Measurement
xxTEST-J
アスペルギルス
CDISC Synonym(s)-J
アスペルギルス
CDISC Definition-J
生物標本において、種レベルには割り当てられていないが、アスペルギルス属レベルに割り当てられている生物の測定値。
NCI Preferred Term-J
アスペルギルス測定

Domain
FA
Code
C112221
xxTESTCD
ASRINDEX
xxTEST
Allergen Skin Response Index
CDISC Synonym(s)
Allergen Skin Response Index
CDISC Definition
A relative measurement (ratio or percentage) of the allergen wheal size to the positive control wheal size in an allergen skin test.
NCI Preferred Term
Allergen Skin Response Index
xxTEST-J
アレルゲン皮膚反応指数
CDISC Synonym(s)-J
アレルゲン皮膚反応指数
CDISC Definition-J
アレルゲン皮膚テストにおけるアレルゲン膨疹の大きさと陽性対照膨疹の大きさの相対的な測定値 (比率またはパーセンテージ)。
NCI Preferred Term-J
アレルゲン皮膚反応指数

Domain
SR
Code
C112221
xxTESTCD
ASRINDEX
xxTEST
Allergen Skin Response Index
CDISC Synonym(s)
Allergen Skin Response Index
CDISC Definition
A relative measurement (ratio or percentage) of the allergen wheal size to the positive control wheal size in an allergen skin test.
NCI Preferred Term
Allergen Skin Response Index
xxTEST-J
アレルゲン皮膚反応指数
CDISC Synonym(s)-J
アレルゲン皮膚反応指数
CDISC Definition-J
アレルゲン皮膚テストにおけるアレルゲン膨疹の大きさと陽性対照膨疹の大きさの相対的な測定値 (比率またはパーセンテージ)。
NCI Preferred Term-J
アレルゲン皮膚反応指数

Domain
SR
Code
C112222
xxTESTCD
ASRINT
xxTEST
Allergen Skin Response Intensity
CDISC Synonym(s)
Allergen Skin Response Intensity
CDISC Definition
A semi-quantitative assessment of the intensity of the wheal and flare reaction.
NCI Preferred Term
Allergen Skin Response Intensity
xxTEST-J
アレルゲン皮膚反応強度
CDISC Synonym(s)-J
アレルゲン皮膚反応強度
CDISC Definition-J
膨疹および発赤反応の強度の半定量的評価。
NCI Preferred Term-J
アレルゲン皮膚反応強度

Domain
FA
Code
C112222
xxTESTCD
ASRINT
xxTEST
Allergen Skin Response Intensity
CDISC Synonym(s)
Allergen Skin Response Intensity
CDISC Definition
A semi-quantitative assessment of the intensity of the wheal and flare reaction.
NCI Preferred Term
Allergen Skin Response Intensity
xxTEST-J
アレルゲン皮膚反応強度
CDISC Synonym(s)-J
アレルゲン皮膚反応強度
CDISC Definition-J
膨疹および発赤反応の強度の半定量的評価。
NCI Preferred Term-J
アレルゲン皮膚反応強度

Domain
LB
Code
C92269
xxTESTCD
ASSDNA
xxTEST
Anti-Single Stranded DNA IgG
CDISC Synonym(s)
Anti-Single Stranded DNA IgG
CDISC Definition
A measurement of the anti-single stranded DNA IgG antibody in a biological specimen.
NCI Preferred Term
Anti-Single Stranded DNA IgG Measurement
xxTEST-J
抗一本鎖DNA IgG
CDISC Synonym(s)-J
抗一本鎖DNA IgG
CDISC Definition-J
生物学的標本中の抗一本鎖 DNA IgG 抗体の測定。
NCI Preferred Term-J
抗一本鎖DNA IgG測定

Domain
LB
Code
C64467
xxTESTCD
AST
xxTEST
Aspartate Aminotransferase
CDISC Synonym(s)
Aspartate Aminotransferase; SGOT
CDISC Definition
A measurement of the aspartate aminotransferase in a biological specimen.
NCI Preferred Term
Aspartate Aminotransferase Measurement
xxTEST-J
アスパラギン酸アミノトランスフェラーゼ
CDISC Synonym(s)-J
アスパラギン酸アミノトランスフェラーゼ; SGOT
CDISC Definition-J
生物標本中のアスパラギン酸アミノトランスフェラーゼの測定。
NCI Preferred Term-J
アスパラギン酸アミノトランスフェラーゼ測定

Domain
LB
Code
C81978
xxTESTCD
ASTAG
xxTEST
Aspartate Aminotransferase Antigen
CDISC Synonym(s)
Aspartate Aminotransferase Antigen; SGOT Antigen
CDISC Definition
A measurement of the aspartate aminotransferase antigen in a biological specimen.
NCI Preferred Term
Aspartate Aminotransferase Antigen Measurement
xxTEST-J
アスパラギン酸アミノトランスフェラーゼ抗原
CDISC Synonym(s)-J
アスパラギン酸アミノトランスフェラーゼ抗原; SGOT抗原
CDISC Definition-J
生物学的標本中のアスパラギン酸アミノトランスフェラーゼ抗原の測定。
NCI Preferred Term-J
アスパラギン酸アミノトランスフェラーゼ抗原測定

Domain
LB
Code
C176297
xxTESTCD
ASTALT
xxTEST
AST/ALT
CDISC Synonym(s)
AST/ALT
CDISC Definition
A relative measurement (ratio or percentage) of the aspartate aminotransferase (AST) to alanine aminotransferase (ALT) present in a sample.
NCI Preferred Term
Aspartate Aminotransferase to Alanine Aminotransferase Ratio Measurement
xxTEST-J
AST/ALT
CDISC Synonym(s)-J
AST/ALT
CDISC Definition-J
サンプル中に存在するアスパラギン酸アミノトランスフェラーゼ (AST) とアラニンアミノトランスフェラーゼ (ALT) の相対的な測定値 (比率またはパーセンテージ)。
NCI Preferred Term-J
アスパラギン酸アミノトランスフェラーゼとアラニンアミノトランスフェラーゼの比率測定

Domain
OE
Code
C117889
xxTESTCD
ASTAXIS
xxTEST
Astigmatism Axis
CDISC Synonym(s)
Astigmatism Axis
CDISC Definition
A measurement of the location, in degrees, of the flatter principal meridian on a 180-degree scale, where 90 degrees designates the vertical meridian and 180 degrees designates the horizontal meridian.
NCI Preferred Term
Astigmatism Axis
xxTEST-J
乱視軸
CDISC Synonym(s)-J
乱視軸
CDISC Definition-J
180 度スケール上の平坦な主子午線の位置を度数で測定した値。90 度は垂直子午線、180 度は水平子午線を示します。
NCI Preferred Term-J
乱視軸

Domain
LB
Code
C201427
xxTESTCD
ASTC
xxTEST
Aspartate Aminotransferase Isoenzyme C
CDISC Synonym(s)
Aspartate Aminotransferase Isoenzyme C; Aspartate Aminotransferase Isoenzyme Cytoplasmic; C-AST; cAspAT; Cytoplasmic Isoenzyme of Aspartate Aminotransferase; SGOT Isoenzyme C
CDISC Definition
A measurement of the aspartate aminotransferase isoenzyme C in a biological specimen.
NCI Preferred Term
Aspartate Aminotransferase Isoenzyme C Measurement
xxTEST-J
アスパラギン酸アミノトランスフェラーゼアイソザイムC
CDISC Synonym(s)-J
アスパラギン酸アミノトランスフェラーゼアイソザイム C; アスパラギン酸アミノトランスフェラーゼアイソザイム 細胞質; C-AST; cAspAT; アスパラギン酸アミノトランスフェラーゼの細胞質アイソザイム; SGOT アイソザイム C
CDISC Definition-J
生物標本中のアスパラギン酸アミノトランスフェラーゼアイソザイム C の測定。
NCI Preferred Term-J
アスパラギン酸アミノトランスフェラーゼアイソザイムC測定

Domain
LB
Code
C158225
xxTESTCD
ASTCK
xxTEST
AST/Creatine Kinase
CDISC Synonym(s)
Aspartate Aminotransferase/CPK; Aspartate Aminotransferase/Creatine Kinase; AST/Creatine Kinase
CDISC Definition
A relative measurement (ratio) of the aspartate aminotransferase to creatine kinase in a biological specimen.
NCI Preferred Term
Aspartate Aminotransferase to Creatine Kinase Ratio Measurement
xxTEST-J
AST/クレアチンキナーゼ
CDISC Synonym(s)-J
アスパラギン酸アミノトランスフェラーゼ/CPK; アスパラギン酸アミノトランスフェラーゼ/クレアチンキナーゼ; AST/クレアチンキナーゼ
CDISC Definition-J
生物標本中のアスパラギン酸アミノトランスフェラーゼとクレアチンキナーゼの相対的な測定値（比率）。
NCI Preferred Term-J
アスパラギン酸アミノトランスフェラーゼとクレアチンキナーゼの比率測定

Domain
LB
Code
C117830
xxTESTCD
ASTCREAT
xxTEST
Aspartate Aminotransferase/Creatinine
CDISC Synonym(s)
Aspartate Aminotransferase/Creatinine
CDISC Definition
A relative measurement (ratio or percentage) of the aspartate aminotransferase to creatinine in a biological specimen.
NCI Preferred Term
Aspartate Aminotransferase to Creatinine Ratio Measurement
xxTEST-J
アスパラギン酸アミノトランスフェラーゼ/クレアチニン
CDISC Synonym(s)-J
アスパラギン酸アミノトランスフェラーゼ/クレアチニン
CDISC Definition-J
生物標本中のアスパラギン酸アミノトランスフェラーゼとクレアチニンの相対的な測定値（比率またはパーセンテージ）。
NCI Preferred Term-J
アスパラギン酸アミノトランスフェラーゼ対クレアチニン比測定

Domain
LB
Code
C186027
xxTESTCD
ASTDLG3A
xxTEST
3-Alpha-Androstanediol Glucuronide
CDISC Synonym(s)
3-Alpha-Androstanediol Glucuronide
CDISC Definition
A measurement of the 3-alpha-androstanediol glucuronide in a biological specimen.
NCI Preferred Term
3-Alpha-Androstanediol Glucuronide Measurement
xxTEST-J
3-アルファ-アンドロスタンジオールグルクロン酸抱合体
CDISC Synonym(s)-J
3-アルファ-アンドロスタンジオールグルクロン酸抱合体
CDISC Definition-J
生物標本中の 3-α-アンドロスタンジオールグルクロン酸抱合体の測定。
NCI Preferred Term-J
3-アルファ-アンドロスタンジオールグルクロン酸抱合体測定

Domain
LB
Code
C201428
xxTESTCD
ASTM
xxTEST
Aspartate Aminotransferase Isoenzyme M
CDISC Synonym(s)
Aspartate Aminotransferase Isoenzyme M; Aspartate Aminotransferase Isoenzyme Mitochondrial; M-AST; mAspAT; Mitochondrial Isoenzyme of Aspartate Aminotransferase; SGOT Isoenzyme M
CDISC Definition
A measurement of the aspartate aminotransferase isoenzyme M in a biological specimen.
NCI Preferred Term
Aspartate Aminotransferase Isoenzyme M Measurement
xxTEST-J
アスパラギン酸アミノトランスフェラーゼアイソザイムM
CDISC Synonym(s)-J
アスパラギン酸アミノトランスフェラーゼアイソザイム M; ミトコンドリアアスパラギン酸アミノトランスフェラーゼアイソザイム; M-AST; mAspAT; ミトコンドリアアスパラギン酸アミノトランスフェラーゼアイソザイム; SGOT アイソザイム M
CDISC Definition-J
生物標本中のアスパラギン酸アミノトランスフェラーゼアイソザイムMの測定。
NCI Preferred Term-J
アスパラギン酸アミノトランスフェラーゼアイソザイムM測定

Domain
LB
Code
C142272
xxTESTCD
ASYNP
xxTEST
Alpha Synuclein Protein
CDISC Synonym(s)
Alpha Synuclein Protein
CDISC Definition
A measurement of the alpha synuclein protein in a biological specimen.
NCI Preferred Term
Alpha Synuclein Protein Measurement
xxTEST-J
アルファシヌクレインタンパク質
CDISC Synonym(s)-J
アルファシヌクレインタンパク質
CDISC Definition-J
生物学的標本中のαシヌクレインタンパク質の測定。
NCI Preferred Term-J
αシヌクレインタンパク質測定

Domain
IS
Code
C181397
xxTESTCD
ATAB
xxTEST
Autoantibody
CDISC Synonym(s)
Autoantibody
CDISC Definition
A measurement of the binding autoantibody in a biological specimen.
NCI Preferred Term
Autoantibody Measurement
xxTEST-J
自己抗体
CDISC Synonym(s)-J
自己抗体
CDISC Definition-J
生物学的標本中の結合自己抗体の測定。
NCI Preferred Term-J
自己抗体測定

Domain
LB
Code
C147306
xxTESTCD
ATHMBAAC
xxTEST
Antithrombin Activity Actual/Control
CDISC Synonym(s)
Antithrombin Activity Actual/Antithrombin Activity Control; Antithrombin Activity Actual/Control; Antithrombin Activity Actual/Normal
CDISC Definition
A relative measurement (ratio or percentage) of the biological activity of antithrombin in a subject's specimen when compared to the same activity in a control specimen.
NCI Preferred Term
Antithrombin Activity Actual to Control Ratio Measurement
xxTEST-J
アンチトロンビン活性実測値/対照値
CDISC Synonym(s)-J
アンチトロンビン活性実測値/アンチトロンビン活性コントロール；アンチトロンビン活性実測値/コントロール；アンチトロンビン活性実測値/正常
CDISC Definition-J
被験者の検体中のアンチトロンビンの生物学的活性を対照検体中の同じ活性と比較した相対的な測定値（比率またはパーセンテージ）。
NCI Preferred Term-J
アンチトロンビン活性実測値と対照値比の測定

Domain
LB
Code
C170592
xxTESTCD
ATHMBAC
xxTEST
Antithrombin Actual/Control
CDISC Synonym(s)
Antithrombin Actual/Control; Antithrombin Actual/Normal
CDISC Definition
A relative measurement (ratio or percentage) of the Antithrombin in a subject's specimen when compared to a control specimen.
NCI Preferred Term
Antithrombin Actual to Control Ratio Measurement
xxTEST-J
アンチトロンビン実測値/対照値
CDISC Synonym(s)-J
アンチトロンビン実測値/対照値; アンチトロンビン実測値/正常値
CDISC Definition-J
対照標本と比較した被験者の標本中のアンチトロンビンの相対的な測定値（比率またはパーセンテージ）。
NCI Preferred Term-J
アンチトロンビン実測値と対照値比の測定

Domain
LB
Code
C154726
xxTESTCD
ATHPIDX
xxTEST
Atherogenic Index of Plasma
CDISC Synonym(s)
AIP; Atherogenic Index; Atherogenic Index of Plasma
CDISC Definition
A measurement of the base 10 logarithm of the ratio of molar concentration of plasma triglyceride to high density lipoprotein cholesterol in a biological specimen.
NCI Preferred Term
Atherogenic Index of Plasma
xxTEST-J
血漿の動脈硬化指数
CDISC Synonym(s)-J
AIP; アテローム形成指数; 血漿のアテローム形成指数
CDISC Definition-J
生物標本中の血漿トリグリセリドと高密度リポタンパク質コレステロールのモル濃度比の 10 を底とする対数の測定。
NCI Preferred Term-J
血漿の動脈硬化指数

Domain
IS
Code
C198278
xxTESTCD
ATIGAAB
xxTEST
IgA Autoantibody
CDISC Synonym(s)
IgA Autoantibody
CDISC Definition
A measurement of the binding IgA autoantibody in a biological specimen.
NCI Preferred Term
IgA Autoantibody Measurement
xxTEST-J
IgA自己抗体
CDISC Synonym(s)-J
IgA自己抗体
CDISC Definition-J
生物学的標本中の結合IgA自己抗体の測定。
NCI Preferred Term-J
IgA自己抗体測定

Domain
IS
Code
C204624
xxTESTCD
ATIGG1AB
xxTEST
IgG1 Autoantibody
CDISC Synonym(s)
IgG1 Autoantibody
CDISC Definition
A measurement of the binding IgG1 autoantibody in a biological specimen.
NCI Preferred Term
IgG1 Autoantibody Measurement
xxTEST-J
IgG1自己抗体
CDISC Synonym(s)-J
IgG1自己抗体
CDISC Definition-J
生物学的標本中の結合IgG1自己抗体の測定。
NCI Preferred Term-J
IgG1自己抗体測定

Domain
IS
Code
C204625
xxTESTCD
ATIGG2AB
xxTEST
IgG2 Autoantibody
CDISC Synonym(s)
IgG2 Autoantibody
CDISC Definition
A measurement of the binding IgG2 autoantibody in a biological specimen.
NCI Preferred Term
IgG2 Autoantibody Measurement
xxTEST-J
IgG2自己抗体
CDISC Synonym(s)-J
IgG2自己抗体
CDISC Definition-J
生物学的標本中の結合IgG2自己抗体の測定。
NCI Preferred Term-J
IgG2自己抗体測定

Domain
IS
Code
C204626
xxTESTCD
ATIGG3AB
xxTEST
IgG3 Autoantibody
CDISC Synonym(s)
IgG3 Autoantibody
CDISC Definition
A measurement of the binding IgG3 autoantibody in a biological specimen.
NCI Preferred Term
IgG3 Autoantibody Measurement
xxTEST-J
IgG3自己抗体
CDISC Synonym(s)-J
IgG3自己抗体
CDISC Definition-J
生物学的標本中の結合IgG3自己抗体の測定。
NCI Preferred Term-J
IgG3自己抗体測定

Domain
IS
Code
C198279
xxTESTCD
ATIGGAB
xxTEST
IgG Autoantibody
CDISC Synonym(s)
IgG Autoantibody
CDISC Definition
A measurement of the binding IgG autoantibody in a biological specimen.
NCI Preferred Term
IgG Autoantibody Measurement
xxTEST-J
IgG自己抗体
CDISC Synonym(s)-J
IgG自己抗体
CDISC Definition-J
生物学的標本中の結合IgG自己抗体の測定。
NCI Preferred Term-J
IgG自己抗体測定

Domain
IS
Code
C198280
xxTESTCD
ATIGMAB
xxTEST
IgM Autoantibody
CDISC Synonym(s)
IgM Autoantibody
CDISC Definition
A measurement of the binding IgM autoantibody in a biological specimen.
NCI Preferred Term
IgM Autoantibody Measurement
xxTEST-J
IgM自己抗体
CDISC Synonym(s)-J
IgM自己抗体
CDISC Definition-J
生物学的標本中の結合 IgM 自己抗体の測定。
NCI Preferred Term-J
IgM自己抗体測定

Domain
LB
Code
C199912
xxTESTCD
ATLKPRTN
xxTEST
Antileukoproteinase
CDISC Synonym(s)
ALK1; Antileukoproteinase; BLPI; Proteinase Inhibitor WAP4; Secretory Leukocyte Peptidase Inhibitor; Secretory Leukocyte Protease Inhibitor
CDISC Definition
A measurement of the antileukoproteinase in a biological specimen.
NCI Preferred Term
Antileukoproteinase Measurement
xxTEST-J
抗白血球プロテアーゼ
CDISC Synonym(s)-J
ALK1; 抗白血球プロテアーゼ; BLPI; プロテアーゼ阻害剤 WAP4; 分泌型白血球ペプチダーゼ阻害剤; 分泌型白血球プロテアーゼ阻害剤
CDISC Definition-J
生物学的標本中の抗白血球プロテアーゼの測定。
NCI Preferred Term-J
抗ロイコプロテイナーゼの測定

Domain
NV
Code
C81324
xxTESTCD
ATNRFX
xxTEST
Asymmetric Tonic Neck Reflex
CDISC Synonym(s)
Asymmetric Tonic Neck Reflex; ATNR
CDISC Definition
An involuntary, primal response in the neonate in which the arm extends to follow the infant's gaze, while the opposing arm and leg flex inward.
NCI Preferred Term
Tonic Neck Reflex
xxTEST-J
非対称性緊張性頸反射
CDISC Synonym(s)-J
非対称性緊張性頸反射; ATNR
CDISC Definition-J
新生児の無意識の原始的反応で、腕を伸ばして乳児の視線を追うと同時に、反対側の腕と脚を内側に曲げます。
NCI Preferred Term-J
緊張性頸反射

Domain
LB
Code
C147307
xxTESTCD
ATP
xxTEST
Adenosine Triphosphate
CDISC Synonym(s)
Adenosine Triphosphate
CDISC Definition
A measurement of the adenosine triphosphate in a biological specimen.
NCI Preferred Term
Adenosine Triphosphate Measurement
xxTEST-J
アデノシン三リン酸
CDISC Synonym(s)-J
アデノシン三リン酸
CDISC Definition-J
生物標本中のアデノシン三リン酸の測定。
NCI Preferred Term-J
アデノシン三リン酸測定

Domain
LB
Code
C103350
xxTESTCD
ATPVITE
xxTEST
Alpha Tocopherol/Vitamin E
CDISC Synonym(s)
Alpha Tocopherol/Vitamin E
CDISC Definition
A relative measurement (ratio or percentage) of alpha-tocopherol to the total vitamin E in a biological specimen.
NCI Preferred Term
Alpha Tocopherol to Vitamin E Ratio Measurement
xxTEST-J
アルファトコフェロール/ビタミンE
CDISC Synonym(s)-J
アルファトコフェロール/ビタミンE
CDISC Definition-J
生物標本中の総ビタミン E に対するアルファトコフェロールの相対的な測定値 (比率またはパーセンテージ)。
NCI Preferred Term-J
アルファトコフェロールとビタミンEの比率測定

Domain
OE
Code
C214726
xxTESTCD
ATROPHY
xxTEST
Atrophy
CDISC Synonym(s)
Atrophy
CDISC Definition
An evaluation of atrophy (decrease in size, deterioration, and/or wasting) in a biological specimen or location.
NCI Preferred Term
Atrophy Assessment
xxTEST-J
萎縮
CDISC Synonym(s)-J
萎縮
CDISC Definition-J
生物学的標本または部位の萎縮（サイズの減少、劣化、および/または消耗）の評価。
NCI Preferred Term-J
萎縮評価

Domain
DU
Code
C94862
xxTESTCD
ATTCRCT
xxTEST
Attenuation Correction Type
CDISC Synonym(s)
Attenuation Correction Type
CDISC Definition
The adjustment for the effect of tissue thicknesses through which gamma's travel from an activity concentration origin to the scanner's detectors. The count rates of a detector are adjusted to values as if there were no attenuation along the gamma's path.
NCI Preferred Term
Attenuation Correction
xxTEST-J
減衰補正タイプ
CDISC Synonym(s)-J
減衰補正タイプ
CDISC Definition-J
ガンマ線が放射能濃度源からスキャナの検出器まで通過する組織の厚さの影響に対する調整。検出器のカウントレートは、ガンマ線が通過する経路に減衰がないかのように調整されます。
NCI Preferred Term-J
減衰補正

Domain
LB
Code
C74657
xxTESTCD
AUERRODS
xxTEST
Auer Rods
CDISC Synonym(s)
Auer Rods
CDISC Definition
A measurement of the Auer rods (elongated needle structures that are found in the cytoplasm of leukemic blasts and are formed by clumps of azurophilic granular material) in a biological specimen.
NCI Preferred Term
Auer Rod Measurement
xxTEST-J
アウアーロッド
CDISC Synonym(s)-J
アウアーロッド
CDISC Definition-J
生物標本中のアウアー小体（白血病芽球の細胞質に見られ、アズール顆粒物質の塊によって形成される細長い針状構造）の測定。
NCI Preferred Term-J
アウアーロッド測定

Domain
EG
Code
C111131
xxTESTCD
AVCOND
xxTEST
Atrioventricular Conduction
CDISC Synonym(s)
Atrioventricular Conduction
CDISC Definition
An electrocardiographic assessment of cardiac atrioventricular conduction.
NCI Preferred Term
Atrioventricular Conduction ECG Assessment
xxTEST-J
房室伝導
CDISC Synonym(s)-J
房室伝導
CDISC Definition-J
心臓房室伝導の心電図評価。
NCI Preferred Term-J
房室伝導心電図評価

Domain
HE
Code
C111131
xxTESTCD
AVCOND
xxTEST
Atrioventricular Conduction
CDISC Synonym(s)
Atrioventricular Conduction
CDISC Definition
An electrocardiographic assessment of cardiac atrioventricular conduction.
NCI Preferred Term
Atrioventricular Conduction ECG Assessment
xxTEST-J
房室伝導
CDISC Synonym(s)-J
房室伝導
CDISC Definition-J
心臓房室伝導の心電図評価。
NCI Preferred Term-J
房室伝導心電図評価

Domain
CV
Code
C127540
xxTESTCD
AVRGF
xxTEST
Aortic Valve Regurgitant Fraction
CDISC Synonym(s)
Aortic Valve Regurgitant Fraction
CDISC Definition
A measurement of the volume of retrograde blood flow across the orifice of the aortic valve expressed as a percentage of the anterograde flow volume.
NCI Preferred Term
Aortic Valve Regurgitant Fraction
xxTEST-J
大動脈弁逆流率
CDISC Synonym(s)-J
大動脈弁逆流率
CDISC Definition-J
大動脈弁の開口部を通過する逆流血流量の測定値を、順流血流量のパーセンテージとして表します。
NCI Preferred Term-J
大動脈弁逆流率

Domain
CV
Code
C127541
xxTESTCD
AVRGJW
xxTEST
Aortic Valve Regurgitant Jet Width
CDISC Synonym(s)
Aortic Valve Regurgitant Jet Width
CDISC Definition
The measured width of the regurgitant jet of blood into the left ventricular outflow tract.
NCI Preferred Term
Aortic Valve Regurgitant Jet Width
xxTEST-J
大動脈弁逆流ジェット幅
CDISC Synonym(s)-J
大動脈弁逆流ジェット幅
CDISC Definition-J
左心室流出路への血液の逆流ジェットの測定された幅。
NCI Preferred Term-J
大動脈弁逆流ジェット幅

Domain
CV
Code
C127542
xxTESTCD
AVRGVOL
xxTEST
Aortic Valve Regurgitant Volume
CDISC Synonym(s)
Aortic Valve Regurgitant Volume
CDISC Definition
A measurement of the volume of retrograde blood flow across the orifice of the aortic valve.
NCI Preferred Term
Aortic Valve Regurgitant Volume
xxTEST-J
大動脈弁逆流量
CDISC Synonym(s)-J
大動脈弁逆流量
CDISC Definition-J
大動脈弁の開口部を流れる逆流血量の測定。
NCI Preferred Term-J
大動脈弁逆流量

Domain
CV
Code
C127543
xxTESTCD
AVVCA
xxTEST
Aortic Valve Vena Contracta Area
CDISC Synonym(s)
Aortic Valve Vena Contracta Area
CDISC Definition
The area of the vena contracta of the aortic valve.
NCI Preferred Term
Aortic Valve Vena Contracta Area
xxTEST-J
大動脈弁大静脈収縮領域
CDISC Synonym(s)-J
大動脈弁大静脈収縮領域
CDISC Definition-J
大動脈弁の縮流部領域。
NCI Preferred Term-J
大動脈弁大静脈収縮領域

Domain
CV
Code
C127544
xxTESTCD
AVVCW
xxTEST
Aortic Valve Vena Contracta Width
CDISC Synonym(s)
Aortic Valve Vena Contracta Width
CDISC Definition
The width of the vena contracta of the aortic valve.
NCI Preferred Term
Aortic Valve Vena Contracta Width
xxTEST-J
大動脈弁大静脈収縮幅
CDISC Synonym(s)-J
大動脈弁大静脈収縮幅
CDISC Definition-J
大動脈弁の縮静脈の幅。
NCI Preferred Term-J
大動脈弁大静脈収縮幅

Domain
RE
Code
C170457
xxTESTCD
AWVOL
xxTEST
Airway Volume
CDISC Synonym(s)
Airway Volume
CDISC Definition
The total volume of gas in a specified airway or set of airways at a specified point in time in the respiratory cycle.
NCI Preferred Term
Airway Volume
xxTEST-J
気道容積
CDISC Synonym(s)-J
気道容積
CDISC Definition-J
呼吸周期の特定の時点における、特定の気道または気道セット内のガスの総量。
NCI Preferred Term-J
気道容積

Domain
RE
Code
C170621
xxTESTCD
AWVOLPP
xxTEST
Percent Predicted Airway Volume
CDISC Synonym(s)
Percent Predicted Airway Volume
CDISC Definition
The total volume of gas in a specified airway or set of airways at a specified point in time in the respiratory cycle, expressed as a proportion of the predicted normal value.
NCI Preferred Term
Percent Predicted Airway Volume
xxTEST-J
予測気道容積の割合
CDISC Synonym(s)-J
予測気道容積の割合
CDISC Definition-J
呼吸周期の特定の時点における特定の気道または気道セット内のガスの総量。予測される正常値の割合として表されます。
NCI Preferred Term-J
予測気道容積の割合

Domain
RE
Code
C170619
xxTESTCD
AWWVOL
xxTEST
Airway Wall Volume
CDISC Synonym(s)
Airway Wall Volume
CDISC Definition
The volume of the entirety of the airway tissue in a specified intrapulmonary region.
NCI Preferred Term
Airway Wall Volume
xxTEST-J
気道壁容積
CDISC Synonym(s)-J
気道壁容積
CDISC Definition-J
指定された肺内領域における気道組織全体の容積。
NCI Preferred Term-J
気道壁容積

Domain
EG
Code
C111132
xxTESTCD
AXISVOLT
xxTEST
Axis and Voltage
CDISC Synonym(s)
Axis and Voltage
CDISC Definition
An electrocardiographic assessment of mean cardiac electrical vector and the ECG voltage.
NCI Preferred Term
Axis and Voltage ECG Assessment
xxTEST-J
軸と電圧
CDISC Synonym(s)-J
軸と電圧
CDISC Definition-J
平均心臓電気ベクトルと ECG 電圧の心電図評価。
NCI Preferred Term-J
軸と電圧の心電図評価

Domain
HE
Code
C111132
xxTESTCD
AXISVOLT
xxTEST
Axis and Voltage
CDISC Synonym(s)
Axis and Voltage
CDISC Definition
An electrocardiographic assessment of mean cardiac electrical vector and the ECG voltage.
NCI Preferred Term
Axis and Voltage ECG Assessment
xxTEST-J
軸と電圧
CDISC Synonym(s)-J
軸と電圧
CDISC Definition-J
平均心臓電気ベクトルと ECG 電圧の心電図評価。
NCI Preferred Term-J
軸と電圧の心電図評価

Domain
LB
Code
C165943
xxTESTCD
AXL
xxTEST
AXL Receptor Tyrosine Kinase
CDISC Synonym(s)
ARK; AXL Receptor Tyrosine Kinase; JTK11; Tyro7; UFO
CDISC Definition
A measurement of the AXL receptor tyrosine kinase in a biological specimen.
NCI Preferred Term
AXL Receptor Tyrosine Kinase Measurement
xxTEST-J
AXL受容体チロシンキナーゼ
CDISC Synonym(s)-J
ARK、AXL受容体チロシンキナーゼ、JTK11、Tyro7、UFO
CDISC Definition-J
生物標本中の AXL 受容体チロシンキナーゼの測定。
NCI Preferred Term-J
AXL受容体チロシンキナーゼ測定

Domain
MB
Code
C172529
xxTESTCD
AXY
xxTEST
Achromobacter xylosoxidans
CDISC Synonym(s)
Achromobacter xylosoxidans
CDISC Definition
A measurement of the Achromobacter xylosoxidans in a biological specimen.
NCI Preferred Term
Achromobacter xylosoxidans Measurement
xxTEST-J
アクロモバクター・キシロオキシダンス
CDISC Synonym(s)-J
アクロモバクター・キシロオキシダンス
CDISC Definition-J
生物標本中の Achromobacter xylosoxidans の測定。
NCI Preferred Term-J
アクロモバクター・キシロスオキシダンス測定

Domain
LB
Code
C116185
xxTESTCD
AZURGRAN
xxTEST
Azurophilic Granules
CDISC Synonym(s)
Azurophilic Granulation; Azurophilic Granules
CDISC Definition
An observation of azurophilic granules in a biological specimen.
NCI Preferred Term
Azurophilic Granule Measurement
xxTEST-J
アズール顆粒
CDISC Synonym(s)-J
アズール顆粒; アズール顆粒
CDISC Definition-J
生物標本におけるアズール顆粒の観察。
NCI Preferred Term-J
アズール顆粒測定

Domain
MB
Code
C156542
xxTESTCD
B19V
xxTEST
Human Parvovirus B19
CDISC Synonym(s)
Human Parvovirus B19
CDISC Definition
A measurement of the Human Parvovirus B19 in a biological specimen.
NCI Preferred Term
Human Parvovirus B19 Measurement
xxTEST-J
ヒトパルボウイルスB19
CDISC Synonym(s)-J
ヒトパルボウイルスB19
CDISC Definition-J
生物標本中のヒトパルボウイルス B19 の測定。
NCI Preferred Term-J
ヒトパルボウイルスB19の測定

Domain
MB
Code
C187856
xxTESTCD
B19VDNA
xxTEST
Human Parvovirus B19 DNA
CDISC Synonym(s)
Human Parvovirus B19 DNA
CDISC Definition
A measurement of the Human Parvovirus B19 DNA in a biological specimen.
NCI Preferred Term
Human Parvovirus B19 DNA Measurement
xxTEST-J
ヒトパルボウイルスB19 DNA
CDISC Synonym(s)-J
ヒトパルボウイルスB19 DNA
CDISC Definition-J
生物標本中のヒトパルボウイルス B19 DNA の測定。
NCI Preferred Term-J
ヒトパルボウイルスB19のDNA測定

Domain
LB
Code
C127607
xxTESTCD
B1BGLP
xxTEST
Beta-1B Glycoprotein
CDISC Synonym(s)
Beta-1B Glycoprotein; Hemopexin; HPX
CDISC Definition
A measurement of the beta-1B glycoprotein in a biological specimen.
NCI Preferred Term
Beta-1B Glycoprotein Measurement
xxTEST-J
ベータ1B糖タンパク質
CDISC Synonym(s)-J
ベータ1B糖タンパク質; ヘモペキシン; HPX
CDISC Definition-J
生物標本中のベータ 1B 糖タンパク質の測定。
NCI Preferred Term-J
ベータ1B糖タンパク質測定

Domain
LB
Code
C127608
xxTESTCD
B2MCREAT
xxTEST
Beta-2 Microglobulin/Creatinine
CDISC Synonym(s)
Beta-2 Microglobulin/Creatinine
CDISC Definition
A relative measurement (ratio) of the beta-2 microglobulin to creatinine in a biological specimen.
NCI Preferred Term
Beta-2 Microglobulin to Creatinine Ratio Measurement
xxTEST-J
ベータ2ミクログロブリン/クレアチニン
CDISC Synonym(s)-J
ベータ2ミクログロブリン/クレアチニン
CDISC Definition-J
生物学的標本中のベータ 2 ミクログロブリンとクレアチニンの相対的な測定値 (比率)。
NCI Preferred Term-J
ベータ2ミクログロブリン対クレアチニン比測定

Domain
LB
Code
C81980
xxTESTCD
B2MICG
xxTEST
Beta-2 Microglobulin
CDISC Synonym(s)
Beta-2 Microglobulin
CDISC Definition
A measurement of the beta-2 microglobulin in a biological specimen.
NCI Preferred Term
Beta-2 Microglobulin Measurement
xxTEST-J
ベータ2ミクログロブリン
CDISC Synonym(s)-J
ベータ2ミクログロブリン
CDISC Definition-J
生物学的標本中のベータ 2 ミクログロブリンの測定。
NCI Preferred Term-J
ベータ2ミクログロブリン測定

Domain
MB
Code
C187842
xxTESTCD
BABEDNA
xxTEST
Babesia DNA
CDISC Synonym(s)
Babesia DNA
CDISC Definition
A measurement of the DNA from any member of the genus Babesia in a biological specimen.
NCI Preferred Term
Babesia DNA Measurement
xxTEST-J
バベシアDNA
CDISC Synonym(s)-J
バベシアDNA
CDISC Definition-J
生物標本中のバベシア属の任意のメンバーの DNA の測定。
NCI Preferred Term-J
バベシアDNA測定

Domain
CP
Code
C209488
xxTESTCD
BABS
xxTEST
BLym Ab-Secreting
CDISC Synonym(s)
B-Lymphocytes Antibody-Secreting; BLym Ab-Secreting; BLym AbSc
CDISC Definition
A measurement of the antibody-secreting B-lymphocytes in a biological specimen.
NCI Preferred Term
Antibody-secreting B-Lymphocytes Count
xxTEST-J
BLym Ab分泌
CDISC Synonym(s)-J
Bリンパ球抗体分泌; BLym Ab分泌; BLym AbSc
CDISC Definition-J
生物学的標本中の抗体分泌 B リンパ球の測定。
NCI Preferred Term-J
抗体分泌Bリンパ球数

Domain
CP
Code
C209489
xxTESTCD
BABSB
xxTEST
BLym Ab-Secreting/BLym
CDISC Synonym(s)
B-Lymphocytes Antibody-Secreting/B-Lymphocytes; BLym Ab-Secreting/Blym; BLym AbSc/BLym
CDISC Definition
A relative measurement (ratio or percentage) of the antibody-secreting B-lymphocytes to total B-lymphocytes in a biological specimen.
NCI Preferred Term
Antibody-secreting B-Lymphocyte to B-Lymphocyte Ratio Measurement
xxTEST-J
BLym Ab分泌/BLym
CDISC Synonym(s)-J
Bリンパ球 抗体分泌/Bリンパ球; BLym 抗体分泌/Blym; BLym AbSc/BLym
CDISC Definition-J
生物学的標本中の総 B リンパ球に対する抗体分泌 B リンパ球の相対的な測定値 (比率またはパーセンテージ)。
NCI Preferred Term-J
抗体分泌Bリンパ球対Bリンパ球比測定

Domain
CP
Code
C209490
xxTESTCD
BABSLE
xxTEST
BLym Ab-Secreting/Leuk
CDISC Synonym(s)
B-Lymphocytes Antibody-Secreting/Leukocytes; BLym Ab-Secreting/Leuk; BLym AbSc/Leuk
CDISC Definition
A relative measurement (ratio or percentage) of the antibody-secreting B-lymphocytes to leukocytes in a biological specimen.
NCI Preferred Term
Antibody-secreting B-Lymphocyte to Leukocyte Ratio Measurement
xxTEST-J
BLym Ab分泌/白血球
CDISC Synonym(s)-J
Bリンパ球 抗体分泌/白血球; BLym Ab-分泌/Leuk; BLym AbSc/Leuk
CDISC Definition-J
生物学的標本中の白血球に対する抗体分泌 B リンパ球の相対的な測定値 (比率またはパーセンテージ)。
NCI Preferred Term-J
抗体分泌Bリンパ球と白血球の比測定

Domain
CP
Code
C209491
xxTESTCD
BABSP
xxTEST
BLym Ab-Secreting Sub/BLym AbSc
CDISC Synonym(s)
B-Lymphocytes Antibody-Secreting Sub-Population/B-Lymphocytes Antibody-Secreting; BLym Ab-Secreting Sub/BLym AbSc; BLym AbSc Sub/BLym AbSc
CDISC Definition
A relative measurement (ratio or percentage) of a sub-population of antibody-secreting B-lymphocytes to antibody-secreting B-lymphocytes in a biological specimen.
NCI Preferred Term
Antibody-secreting B-Lymphocyte Subpopulation to Antibody-secreting B-Lymphocyte Ratio Measurement
xxTEST-J
BLym Ab分泌サブ/BLym AbSc
CDISC Synonym(s)-J
Bリンパ球抗体分泌サブポピュレーション/Bリンパ球抗体分泌; BLym 抗体分泌サブ/BLym AbSc; BLym AbSc サブ/BLym AbSc
CDISC Definition-J
生物学的標本中の抗体分泌 B リンパ球に対する抗体分泌 B リンパ球のサブ集団の相対的な測定値 (比率またはパーセンテージ)。
NCI Preferred Term-J
抗体分泌Bリンパ球サブポピュレーションと抗体分泌Bリンパ球比の測定

Domain
MB
Code
C161400
xxTESTCD
BACBLACT
xxTEST
Bacterial Beta-lactamase
CDISC Synonym(s)
Bacterial Beta-lactamase
CDISC Definition
A measurement of the bacterial enzyme beta-lactamase in a biological specimen.
NCI Preferred Term
Bacterial Beta-lactamase Measurement
xxTEST-J
細菌性β-ラクタマーゼ
CDISC Synonym(s)-J
細菌性β-ラクタマーゼ
CDISC Definition-J
生物標本中の細菌酵素ベータラクタマーゼの測定。
NCI Preferred Term-J
細菌性βラクタマーゼ測定

Domain
MB
Code
C198304
xxTESTCD
BACILLE
xxTEST
Bacilli/Leukocytes
CDISC Synonym(s)
Bacilli/Leukocytes
CDISC Definition
A relative measurement (ratio or percentage) of the bacilli to leukocytes in a biological specimen.
NCI Preferred Term
Bacillus to Leukocyte Ratio Measurement
xxTEST-J
桿菌/白血球
CDISC Synonym(s)-J
桿菌/白血球
CDISC Definition-J
